Estimator,toCont.keys,toCont.rt,SE.keys,SE.rt,trials_2.thisRepN,trials_2.thisTrialN,trials_2.thisN,trials_2.thisIndex,trials_2.ran,trait,Idx,participant,date,expName,psychopyVersion,OS,frameRate,toCont_2.keys,toCont_2.rt,EnterGuess.text,Guess,dotestLoop.thisRepN,dotestLoop.thisTrialN,dotestLoop.thisN,dotestLoop.thisIndex,dotestLoop.ran,dp,Confirm2.text,toCont_3.keys,toCont_3.rt,resp.keys,resp.rt,traitC,optionLeft,optionRight,optionChoice,choiceResp,choices.thisRepN,choices.thisTrialN,choices.thisN,choices.thisIndex,choices.ran
Overestimator,space,12.581,space,15.715,0,0,0,73,1,Courageous,24,58664,2022-05-02_11h41.54.609,SelfAnchoring,2021.2.3,Win32,60.0240096,,,,,,,,,,,,,,,,,,,,,,,,,
,,,7,15.497,0,1,1,68,1,Scientific,112,58664,2022-05-02_11h41.54.609,SelfAnchoring,2021.2.3,Win32,60.0240096,,,,,,,,,,,,,,,,,,,,,,,,,
,,,5,10.905,0,2,2,69,1,Friendly,46,58664,2022-05-02_11h41.54.609,SelfAnchoring,2021.2.3,Win32,60.0240096,,,,,,,,,,,,,,,,,,,,,,,,,
,,,3,8.335,0,3,3,7,1,Stable,123,58664,2022-05-02_11h41.54.609,SelfAnchoring,2021.2.3,Win32,60.0240096,,,,,,,,,,,,,,,,,,,,,,,,,
,,,4,3.687,0,4,4,79,1,Composed,15,58664,2022-05-02_11h41.54.609,SelfAnchoring,2021.2.3,Win32,60.0240096,,,,,,,,,,,,,,,,,,,,,,,,,
,,,6,8.924,0,5,5,57,1,Nice,80,58664,2022-05-02_11h41.54.609,SelfAnchoring,2021.2.3,Win32,60.0240096,,,,,,,,,,,,,,,,,,,,,,,,,
,,,5,2.65,0,6,6,44,1,Thoughtful,129,58664,2022-05-02_11h41.54.609,SelfAnchoring,2021.2.3,Win32,60.0240096,,,,,,,,,,,,,,,,,,,,,,,,,
,,,4,5.372,0,7,7,67,1,Level-headed,70,58664,2022-05-02_11h41.54.609,SelfAnchoring,2021.2.3,Win32,60.0240096,,,,,,,,,,,,,,,,,,,,,,,,,
,,,4,5.667,0,8,8,42,1,Eager,33,58664,2022-05-02_11h41.54.609,SelfAnchoring,2021.2.3,Win32,60.0240096,,,,,,,,,,,,,,,,,,,,,,,,,
,,,6,8.052,0,9,9,37,1,Reserved,108,58664,2022-05-02_11h41.54.609,SelfAnchoring,2021.2.3,Win32,60.0240096,,,,,,,,,,,,,,,,,,,,,,,,,
,,,2,2.298,0,10,10,1,1,Dependable,30,58664,2022-05-02_11h41.54.609,SelfAnchoring,2021.2.3,Win32,60.0240096,,,,,,,,,,,,,,,,,,,,,,,,,
,,,6,5.282,0,11,11,40,1,Gentle,50,58664,2022-05-02_11h41.54.609,SelfAnchoring,2021.2.3,Win32,60.0240096,,,,,,,,,,,,,,,,,,,,,,,,,
,,,5,4.19,0,12,12,75,1,Compassionate,14,58664,2022-05-02_11h41.54.609,SelfAnchoring,2021.2.3,Win32,60.0240096,,,,,,,,,,,,,,,,,,,,,,,,,
,,,4,2.877,0,13,13,81,1,Outgoing,86,58664,2022-05-02_11h41.54.609,SelfAnchoring,2021.2.3,Win32,60.0240096,,,,,,,,,,,,,,,,,,,,,,,,,
,,,3,5.844,0,14,14,60,1,Straightforward,125,58664,2022-05-02_11h41.54.609,SelfAnchoring,2021.2.3,Win32,60.0240096,,,,,,,,,,,,,,,,,,,,,,,,,
,,,5,2.921,0,15,15,78,1,Positive,95,58664,2022-05-02_11h41.54.609,SelfAnchoring,2021.2.3,Win32,60.0240096,,,,,,,,,,,,,,,,,,,,,,,,,
,,,5,8.735,0,16,16,83,1,Fearless,42,58664,2022-05-02_11h41.54.609,SelfAnchoring,2021.2.3,Win32,60.0240096,,,,,,,,,,,,,,,,,,,,,,,,,
,,,4,4.714,0,17,17,0,1,Philosophical,93,58664,2022-05-02_11h41.54.609,SelfAnchoring,2021.2.3,Win32,60.0240096,,,,,,,,,,,,,,,,,,,,,,,,,
,,,3,3.734,0,18,18,52,1,Mature,75,58664,2022-05-02_11h41.54.609,SelfAnchoring,2021.2.3,Win32,60.0240096,,,,,,,,,,,,,,,,,,,,,,,,,
,,,4,5.742,0,19,19,43,1,Comfortable,12,58664,2022-05-02_11h41.54.609,SelfAnchoring,2021.2.3,Win32,60.0240096,,,,,,,,,,,,,,,,,,,,,,,,,
,,,4,4.935,0,20,20,12,1,Optimistic,83,58664,2022-05-02_11h41.54.609,SelfAnchoring,2021.2.3,Win32,60.0240096,,,,,,,,,,,,,,,,,,,,,,,,,
,,,1,1.743,0,21,21,2,1,Graceful,57,58664,2022-05-02_11h41.54.609,SelfAnchoring,2021.2.3,Win32,60.0240096,,,,,,,,,,,,,,,,,,,,,,,,,
,,,6,3.781,0,22,22,88,1,Faithful,41,58664,2022-05-02_11h41.54.609,SelfAnchoring,2021.2.3,Win32,60.0240096,,,,,,,,,,,,,,,,,,,,,,,,,
,,,3,2.1,0,23,23,54,1,Polished,94,58664,2022-05-02_11h41.54.609,SelfAnchoring,2021.2.3,Win32,60.0240096,,,,,,,,,,,,,,,,,,,,,,,,,
,,,5,2.556,0,24,24,65,1,Cooperative,22,58664,2022-05-02_11h41.54.609,SelfAnchoring,2021.2.3,Win32,60.0240096,,,,,,,,,,,,,,,,,,,,,,,,,
,,,2,3.08,0,25,25,18,1,Verbal,140,58664,2022-05-02_11h41.54.609,SelfAnchoring,2021.2.3,Win32,60.0240096,,,,,,,,,,,,,,,,,,,,,,,,,
,,,3,3.524,0,26,26,47,1,Talkative,128,58664,2022-05-02_11h41.54.609,SelfAnchoring,2021.2.3,Win32,60.0240096,,,,,,,,,,,,,,,,,,,,,,,,,
,,,5,6.855,0,27,27,24,1,Good,53,58664,2022-05-02_11h41.54.609,SelfAnchoring,2021.2.3,Win32,60.0240096,,,,,,,,,,,,,,,,,,,,,,,,,
,,,4,14.854,0,28,28,21,1,Unassuming,133,58664,2022-05-02_11h41.54.609,SelfAnchoring,2021.2.3,Win32,60.0240096,,,,,,,,,,,,,,,,,,,,,,,,,
,,,4,4.672,0,29,29,32,1,Skillful,119,58664,2022-05-02_11h41.54.609,SelfAnchoring,2021.2.3,Win32,60.0240096,,,,,,,,,,,,,,,,,,,,,,,,,
,,,7,24.359,0,30,30,51,1,Witty,148,58664,2022-05-02_11h41.54.609,SelfAnchoring,2021.2.3,Win32,60.0240096,,,,,,,,,,,,,,,,,,,,,,,,,
,,,4,18.039,0,31,31,28,1,Subtle,127,58664,2022-05-02_11h41.54.609,SelfAnchoring,2021.2.3,Win32,60.0240096,,,,,,,,,,,,,,,,,,,,,,,,,
,,,5,18.229,0,32,32,87,1,Hospitable,61,58664,2022-05-02_11h41.54.609,SelfAnchoring,2021.2.3,Win32,60.0240096,,,,,,,,,,,,,,,,,,,,,,,,,
,,,6,4.273,0,33,33,48,1,Sensitive,116,58664,2022-05-02_11h41.54.609,SelfAnchoring,2021.2.3,Win32,60.0240096,,,,,,,,,,,,,,,,,,,,,,,,,
,,,4,3.469,0,34,34,23,1,Inventive,67,58664,2022-05-02_11h41.54.609,SelfAnchoring,2021.2.3,Win32,60.0240096,,,,,,,,,,,,,,,,,,,,,,,,,
,,,2,4.271,0,35,35,59,1,Well-spoken,146,58664,2022-05-02_11h41.54.609,SelfAnchoring,2021.2.3,Win32,60.0240096,,,,,,,,,,,,,,,,,,,,,,,,,
,,,3,6.134,0,36,36,53,1,Sociable,121,58664,2022-05-02_11h41.54.609,SelfAnchoring,2021.2.3,Win32,60.0240096,,,,,,,,,,,,,,,,,,,,,,,,,
,,,2,2.817,0,37,37,3,1,Clean-cut,9,58664,2022-05-02_11h41.54.609,SelfAnchoring,2021.2.3,Win32,60.0240096,,,,,,,,,,,,,,,,,,,,,,,,,
,,,5,6.087,0,38,38,58,1,Clever,11,58664,2022-05-02_11h41.54.609,SelfAnchoring,2021.2.3,Win32,60.0240096,,,,,,,,,,,,,,,,,,,,,,,,,
,,,3,6.042,0,39,39,77,1,Sophisticated,122,58664,2022-05-02_11h41.54.609,SelfAnchoring,2021.2.3,Win32,60.0240096,,,,,,,,,,,,,,,,,,,,,,,,,
,,,6,9.146,0,40,40,4,1,Unpretentious,137,58664,2022-05-02_11h41.54.609,SelfAnchoring,2021.2.3,Win32,60.0240096,,,,,,,,,,,,,,,,,,,,,,,,,
,,,5,4.099,0,41,41,66,1,Moral,77,58664,2022-05-02_11h41.54.609,SelfAnchoring,2021.2.3,Win32,60.0240096,,,,,,,,,,,,,,,,,,,,,,,,,
,,,6,8.003,0,42,42,71,1,Fun,47,58664,2022-05-02_11h41.54.609,SelfAnchoring,2021.2.3,Win32,60.0240096,,,,,,,,,,,,,,,,,,,,,,,,,
,,,3,2.69,0,43,43,11,1,Studious,126,58664,2022-05-02_11h41.54.609,SelfAnchoring,2021.2.3,Win32,60.0240096,,,,,,,,,,,,,,,,,,,,,,,,,
,,,3,38.02,0,44,44,35,1,Prudent,100,58664,2022-05-02_11h41.54.609,SelfAnchoring,2021.2.3,Win32,60.0240096,,,,,,,,,,,,,,,,,,,,,,,,,
,,,6,30.356,0,45,45,14,1,Benevolent,2,58664,2022-05-02_11h41.54.609,SelfAnchoring,2021.2.3,Win32,60.0240096,,,,,,,,,,,,,,,,,,,,,,,,,
,,,6,6.192,0,46,46,86,1,Clean,8,58664,2022-05-02_11h41.54.609,SelfAnchoring,2021.2.3,Win32,60.0240096,,,,,,,,,,,,,,,,,,,,,,,,,
,,,2,4.368,0,47,47,31,1,Extraverted,39,58664,2022-05-02_11h41.54.609,SelfAnchoring,2021.2.3,Win32,60.0240096,,,,,,,,,,,,,,,,,,,,,,,,,
,,,7,7.083,0,48,48,36,1,Constructive,20,58664,2022-05-02_11h41.54.609,SelfAnchoring,2021.2.3,Win32,60.0240096,,,,,,,,,,,,,,,,,,,,,,,,,
,,,6,3.069,0,49,49,5,1,Good-tempered,56,58664,2022-05-02_11h41.54.609,SelfAnchoring,2021.2.3,Win32,60.0240096,,,,,,,,,,,,,,,,,,,,,,,,,
,,,4,2.304,0,50,50,80,1,Experienced,38,58664,2022-05-02_11h41.54.609,SelfAnchoring,2021.2.3,Win32,60.0240096,,,,,,,,,,,,,,,,,,,,,,,,,
,,,3,2.831,0,51,51,9,1,Clear-headed,10,58664,2022-05-02_11h41.54.609,SelfAnchoring,2021.2.3,Win32,60.0240096,,,,,,,,,,,,,,,,,,,,,,,,,
,,,4,3.558,0,52,52,13,1,Healthy,58,58664,2022-05-02_11h41.54.609,SelfAnchoring,2021.2.3,Win32,60.0240096,,,,,,,,,,,,,,,,,,,,,,,,,
,,,4,6.969,0,53,53,22,1,Original,85,58664,2022-05-02_11h41.54.609,SelfAnchoring,2021.2.3,Win32,60.0240096,,,,,,,,,,,,,,,,,,,,,,,,,
,,,5,4.881,0,54,54,89,1,Giving,51,58664,2022-05-02_11h41.54.609,SelfAnchoring,2021.2.3,Win32,60.0240096,,,,,,,,,,,,,,,,,,,,,,,,,
,,,4,21.51,0,55,55,34,1,Cordial,23,58664,2022-05-02_11h41.54.609,SelfAnchoring,2021.2.3,Win32,60.0240096,,,,,,,,,,,,,,,,,,,,,,,,,
,,,6,2.5,0,56,56,38,1,Considerate,19,58664,2022-05-02_11h41.54.609,SelfAnchoring,2021.2.3,Win32,60.0240096,,,,,,,,,,,,,,,,,,,,,,,,,
,,,4,4.884,0,57,57,50,1,Open-minded,82,58664,2022-05-02_11h41.54.609,SelfAnchoring,2021.2.3,Win32,60.0240096,,,,,,,,,,,,,,,,,,,,,,,,,
,,,6,5.578,0,58,58,26,1,Dedicated,25,58664,2022-05-02_11h41.54.609,SelfAnchoring,2021.2.3,Win32,60.0240096,,,,,,,,,,,,,,,,,,,,,,,,,
,,,3,2.217,0,59,59,82,1,Practical,96,58664,2022-05-02_11h41.54.609,SelfAnchoring,2021.2.3,Win32,60.0240096,,,,,,,,,,,,,,,,,,,,,,,,,
,,,4,4.34,0,60,60,62,1,Respectful,110,58664,2022-05-02_11h41.54.609,SelfAnchoring,2021.2.3,Win32,60.0240096,,,,,,,,,,,,,,,,,,,,,,,,,
,,,3,21.236,0,61,61,74,1,Foresighted,44,58664,2022-05-02_11h41.54.609,SelfAnchoring,2021.2.3,Win32,60.0240096,,,,,,,,,,,,,,,,,,,,,,,,,
,,,4,7.107,0,62,62,29,1,Deliberate,27,58664,2022-05-02_11h41.54.609,SelfAnchoring,2021.2.3,Win32,60.0240096,,,,,,,,,,,,,,,,,,,,,,,,,
,,,6,5.229,0,63,63,49,1,Versatile,141,58664,2022-05-02_11h41.54.609,SelfAnchoring,2021.2.3,Win32,60.0240096,,,,,,,,,,,,,,,,,,,,,,,,,
,,,4,4.369,0,64,64,10,1,Rational,105,58664,2022-05-02_11h41.54.609,SelfAnchoring,2021.2.3,Win32,60.0240096,,,,,,,,,,,,,,,,,,,,,,,,,
,,,5,9.116,0,65,65,17,1,Democratic,29,58664,2022-05-02_11h41.54.609,SelfAnchoring,2021.2.3,Win32,60.0240096,,,,,,,,,,,,,,,,,,,,,,,,,
,,,7,1.864,0,66,66,85,1,Inquisitive,66,58664,2022-05-02_11h41.54.609,SelfAnchoring,2021.2.3,Win32,60.0240096,,,,,,,,,,,,,,,,,,,,,,,,,
,,,5,6.898,0,67,67,70,1,Charitable,6,58664,2022-05-02_11h41.54.609,SelfAnchoring,2021.2.3,Win32,60.0240096,,,,,,,,,,,,,,,,,,,,,,,,,
,,,5,2.67,0,68,68,39,1,Helpful,59,58664,2022-05-02_11h41.54.609,SelfAnchoring,2021.2.3,Win32,60.0240096,,,,,,,,,,,,,,,,,,,,,,,,,
,,,4,3.398,0,69,69,72,1,Deep,26,58664,2022-05-02_11h41.54.609,SelfAnchoring,2021.2.3,Win32,60.0240096,,,,,,,,,,,,,,,,,,,,,,,,,
,,,3,8.191,0,70,70,64,1,Industrious,64,58664,2022-05-02_11h41.54.609,SelfAnchoring,2021.2.3,Win32,60.0240096,,,,,,,,,,,,,,,,,,,,,,,,,
,,,7,3.106,0,71,71,45,1,Lucky,73,58664,2022-05-02_11h41.54.609,SelfAnchoring,2021.2.3,Win32,60.0240096,,,,,,,,,,,,,,,,,,,,,,,,,
,,,5,2.075,0,72,72,76,1,Good-humored,54,58664,2022-05-02_11h41.54.609,SelfAnchoring,2021.2.3,Win32,60.0240096,,,,,,,,,,,,,,,,,,,,,,,,,
,,,2,2.338,0,73,73,16,1,Concise,16,58664,2022-05-02_11h41.54.609,SelfAnchoring,2021.2.3,Win32,60.0240096,,,,,,,,,,,,,,,,,,,,,,,,,
,,,4,3.872,0,74,74,20,1,Innocent,65,58664,2022-05-02_11h41.54.609,SelfAnchoring,2021.2.3,Win32,60.0240096,,,,,,,,,,,,,,,,,,,,,,,,,
,,,5,11.569,0,75,75,55,1,Unafraid,132,58664,2022-05-02_11h41.54.609,SelfAnchoring,2021.2.3,Win32,60.0240096,,,,,,,,,,,,,,,,,,,,,,,,,
,,,6,2.604,0,76,76,84,1,Persevering,91,58664,2022-05-02_11h41.54.609,SelfAnchoring,2021.2.3,Win32,60.0240096,,,,,,,,,,,,,,,,,,,,,,,,,
,,,5,3.353,0,77,77,63,1,Humorous,63,58664,2022-05-02_11h41.54.609,SelfAnchoring,2021.2.3,Win32,60.0240096,,,,,,,,,,,,,,,,,,,,,,,,,
,,,5,2.437,0,78,78,61,1,Sentimental,117,58664,2022-05-02_11h41.54.609,SelfAnchoring,2021.2.3,Win32,60.0240096,,,,,,,,,,,,,,,,,,,,,,,,,
,,,4,5.671,0,79,79,19,1,Lively,71,58664,2022-05-02_11h41.54.609,SelfAnchoring,2021.2.3,Win32,60.0240096,,,,,,,,,,,,,,,,,,,,,,,,,
,,,3,4.065,0,80,80,56,1,Elegant,35,58664,2022-05-02_11h41.54.609,SelfAnchoring,2021.2.3,Win32,60.0240096,,,,,,,,,,,,,,,,,,,,,,,,,
,,,3,6.085,0,81,81,33,1,Economical,34,58664,2022-05-02_11h41.54.609,SelfAnchoring,2021.2.3,Win32,60.0240096,,,,,,,,,,,,,,,,,,,,,,,,,
,,,3,4.456,0,82,82,41,1,Unenvious,135,58664,2022-05-02_11h41.54.609,SelfAnchoring,2021.2.3,Win32,60.0240096,,,,,,,,,,,,,,,,,,,,,,,,,
,,,4,3.941,0,83,83,27,1,Purposeful,102,58664,2022-05-02_11h41.54.609,SelfAnchoring,2021.2.3,Win32,60.0240096,,,,,,,,,,,,,,,,,,,,,,,,,
,,,3,4.155,0,84,84,8,1,Self-controlled,113,58664,2022-05-02_11h41.54.609,SelfAnchoring,2021.2.3,Win32,60.0240096,,,,,,,,,,,,,,,,,,,,,,,,,
,,,6,3.725,0,85,85,30,1,Self-critical,114,58664,2022-05-02_11h41.54.609,SelfAnchoring,2021.2.3,Win32,60.0240096,,,,,,,,,,,,,,,,,,,,,,,,,
,,,4,2.825,0,86,86,25,1,Well-read,145,58664,2022-05-02_11h41.54.609,SelfAnchoring,2021.2.3,Win32,60.0240096,,,,,,,,,,,,,,,,,,,,,,,,,
,,,6,10.381,0,87,87,6,1,Natural,78,58664,2022-05-02_11h41.54.609,SelfAnchoring,2021.2.3,Win32,60.0240096,,,,,,,,,,,,,,,,,,,,,,,,,
,,,5,3.491,0,88,88,15,1,Calm,3,58664,2022-05-02_11h41.54.609,SelfAnchoring,2021.2.3,Win32,60.0240096,,,,,,,,,,,,,,,,,,,,,,,,,
,,,5,2.713,0,89,89,46,1,Capable,4,58664,2022-05-02_11h41.54.609,SelfAnchoring,2021.2.3,Win32,60.0240096,,,,,,,,,,,,,,,,,,,,,,,,,
,,,,,,,,,,,,58664,2022-05-02_11h41.54.609,SelfAnchoring,2021.2.3,Win32,60.0240096,space,19.624,50,,0,0,0,4,1,plot5.jpg,,,,,,,,,,,,,,,
,,,,,,,,,,,,58664,2022-05-02_11h41.54.609,SelfAnchoring,2021.2.3,Win32,60.0240096,,,75,,0,1,1,7,1,plot8.jpg,,,,,,,,,,,,,,,
,,,,,,,,,,,,58664,2022-05-02_11h41.54.609,SelfAnchoring,2021.2.3,Win32,60.0240096,,,75,,0,2,2,0,1,plot1.jpg,,,,,,,,,,,,,,,
,,,,,,,,,,,,58664,2022-05-02_11h41.54.609,SelfAnchoring,2021.2.3,Win32,60.0240096,,,100,,0,3,3,3,1,plot4.jpg,,,,,,,,,,,,,,,
,,,,,,,,,,,,58664,2022-05-02_11h41.54.609,SelfAnchoring,2021.2.3,Win32,60.0240096,,,10,,0,4,4,9,1,plot10.jpg,,,,,,,,,,,,,,,
,,,,,,,,,,,,58664,2022-05-02_11h41.54.609,SelfAnchoring,2021.2.3,Win32,60.0240096,,,30,,0,5,5,8,1,plot9.jpg,,,,,,,,,,,,,,,
,,,,,,,,,,,,58664,2022-05-02_11h41.54.609,SelfAnchoring,2021.2.3,Win32,60.0240096,,,50,,0,6,6,6,1,plot7.jpg,,,,,,,,,,,,,,,
,,,,,,,,,,,,58664,2022-05-02_11h41.54.609,SelfAnchoring,2021.2.3,Win32,60.0240096,,,25,,0,7,7,5,1,plot6.jpg,,,,,,,,,,,,,,,
,,,,,,,,,,,,58664,2022-05-02_11h41.54.609,SelfAnchoring,2021.2.3,Win32,60.0240096,,,50,,0,8,8,2,1,plot3.jpg,,,,,,,,,,,,,,,
,,,,,,,,,,,,58664,2022-05-02_11h41.54.609,SelfAnchoring,2021.2.3,Win32,60.0240096,,,40,,0,9,9,1,1,plot2.jpg,,,,,,,,,,,,,,,
,,,,,,,,,,Delicate,28,58664,2022-05-02_11h41.54.609,SelfAnchoring,2021.2.3,Win32,60.0240096,,,,,,,,,,,I am a Overestimator,space,34.125,left,14.869,Delicate,Overestimator,Underestimator,Overestimator,2,0,0,0,27,1
,,,,,,,,,,Dignified,31,58664,2022-05-02_11h41.54.609,SelfAnchoring,2021.2.3,Win32,60.0240096,,,,,,,,,,,,,,right,7.34,Dignified,Overestimator,Underestimator,Underestimator,1,0,1,1,30,1
,,,,,,,,,,Moral,77,58664,2022-05-02_11h41.54.609,SelfAnchoring,2021.2.3,Win32,60.0240096,,,,,,,,,,,,,,left,18.974,Moral,Overestimator,Underestimator,Overestimator,2,0,2,2,76,1
,,,,,,,,,,Sophisticated,122,58664,2022-05-02_11h41.54.609,SelfAnchoring,2021.2.3,Win32,60.0240096,,,,,,,,,,,,,,right,3.951,Sophisticated,Overestimator,Underestimator,Underestimator,1,0,3,3,121,1
,,,,,,,,,,Romantic,111,58664,2022-05-02_11h41.54.609,SelfAnchoring,2021.2.3,Win32,60.0240096,,,,,,,,,,,,,,right,9.13,Romantic,Overestimator,Underestimator,Underestimator,1,0,4,4,110,1
,,,,,,,,,,Thrifty,130,58664,2022-05-02_11h41.54.609,SelfAnchoring,2021.2.3,Win32,60.0240096,,,,,,,,,,,,,,right,4.305,Thrifty,Overestimator,Underestimator,Underestimator,1,0,5,5,129,1
,,,,,,,,,,Honest,60,58664,2022-05-02_11h41.54.609,SelfAnchoring,2021.2.3,Win32,60.0240096,,,,,,,,,,,,,,left,3.653,Honest,Overestimator,Underestimator,Overestimator,2,0,6,6,59,1
,,,,,,,,,,Unenvious,135,58664,2022-05-02_11h41.54.609,SelfAnchoring,2021.2.3,Win32,60.0240096,,,,,,,,,,,,,,right,6.703,Unenvious,Overestimator,Underestimator,Underestimator,1,0,7,7,134,1
,,,,,,,,,,Lucky,73,58664,2022-05-02_11h41.54.609,SelfAnchoring,2021.2.3,Win32,60.0240096,,,,,,,,,,,,,,left,4.401,Lucky,Overestimator,Underestimator,Overestimator,2,0,8,8,72,1
,,,,,,,,,,Helpful,59,58664,2022-05-02_11h41.54.609,SelfAnchoring,2021.2.3,Win32,60.0240096,,,,,,,,,,,,,,left,3.792,Helpful,Overestimator,Underestimator,Overestimator,2,0,9,9,58,1
,,,,,,,,,,Dedicated,25,58664,2022-05-02_11h41.54.609,SelfAnchoring,2021.2.3,Win32,60.0240096,,,,,,,,,,,,,,left,10.738,Dedicated,Overestimator,Underestimator,Overestimator,2,0,10,10,24,1
,,,,,,,,,,Prompt,99,58664,2022-05-02_11h41.54.609,SelfAnchoring,2021.2.3,Win32,60.0240096,,,,,,,,,,,,,,left,7.887,Prompt,Overestimator,Underestimator,Overestimator,2,0,11,11,98,1
,,,,,,,,,,Versatile,141,58664,2022-05-02_11h41.54.609,SelfAnchoring,2021.2.3,Win32,60.0240096,,,,,,,,,,,,,,right,3.313,Versatile,Overestimator,Underestimator,Underestimator,1,0,12,12,140,1
,,,,,,,,,,Experienced,38,58664,2022-05-02_11h41.54.609,SelfAnchoring,2021.2.3,Win32,60.0240096,,,,,,,,,,,,,,left,1.557,Experienced,Overestimator,Underestimator,Overestimator,2,0,13,13,37,1
,,,,,,,,,,Lively,71,58664,2022-05-02_11h41.54.609,SelfAnchoring,2021.2.3,Win32,60.0240096,,,,,,,,,,,,,,right,1.169,Lively,Overestimator,Underestimator,Underestimator,1,0,14,14,70,1
,,,,,,,,,,Witty,148,58664,2022-05-02_11h41.54.609,SelfAnchoring,2021.2.3,Win32,60.0240096,,,,,,,,,,,,,,left,4.391,Witty,Overestimator,Underestimator,Overestimator,2,0,15,15,147,1
,,,,,,,,,,Perfectionistic,90,58664,2022-05-02_11h41.54.609,SelfAnchoring,2021.2.3,Win32,60.0240096,,,,,,,,,,,,,,right,3.939,Perfectionistic,Overestimator,Underestimator,Underestimator,1,0,16,16,89,1
,,,,,,,,,,Rational,105,58664,2022-05-02_11h41.54.609,SelfAnchoring,2021.2.3,Win32,60.0240096,,,,,,,,,,,,,,right,6.443,Rational,Overestimator,Underestimator,Underestimator,1,0,17,17,104,1
,,,,,,,,,,Refined,107,58664,2022-05-02_11h41.54.609,SelfAnchoring,2021.2.3,Win32,60.0240096,,,,,,,,,,,,,,right,2.802,Refined,Overestimator,Underestimator,Underestimator,1,0,18,18,106,1
,,,,,,,,,,Self-sufficient,115,58664,2022-05-02_11h41.54.609,SelfAnchoring,2021.2.3,Win32,60.0240096,,,,,,,,,,,,,,left,5.351,Self-sufficient,Overestimator,Underestimator,Overestimator,2,0,19,19,114,1
,,,,,,,,,,Practical,96,58664,2022-05-02_11h41.54.609,SelfAnchoring,2021.2.3,Win32,60.0240096,,,,,,,,,,,,,,right,7.712,Practical,Overestimator,Underestimator,Underestimator,1,0,20,20,95,1
,,,,,,,,,,Calm,3,58664,2022-05-02_11h41.54.609,SelfAnchoring,2021.2.3,Win32,60.0240096,,,,,,,,,,,,,,right,2.627,Calm,Overestimator,Underestimator,Underestimator,1,0,21,21,2,1
,,,,,,,,,,Conscientious,18,58664,2022-05-02_11h41.54.609,SelfAnchoring,2021.2.3,Win32,60.0240096,,,,,,,,,,,,,,left,4.086,Conscientious,Overestimator,Underestimator,Overestimator,2,0,22,22,17,1
,,,,,,,,,,Self-critical,114,58664,2022-05-02_11h41.54.609,SelfAnchoring,2021.2.3,Win32,60.0240096,,,,,,,,,,,,,,left,1.853,Self-critical,Overestimator,Underestimator,Overestimator,2,0,23,23,113,1
,,,,,,,,,,Lenient,69,58664,2022-05-02_11h41.54.609,SelfAnchoring,2021.2.3,Win32,60.0240096,,,,,,,,,,,,,,right,3.899,Lenient,Overestimator,Underestimator,Underestimator,1,0,24,24,68,1
,,,,,,,,,,Positive,95,58664,2022-05-02_11h41.54.609,SelfAnchoring,2021.2.3,Win32,60.0240096,,,,,,,,,,,,,,right,4,Positive,Overestimator,Underestimator,Underestimator,1,0,25,25,94,1
,,,,,,,,,,Good-humored,54,58664,2022-05-02_11h41.54.609,SelfAnchoring,2021.2.3,Win32,60.0240096,,,,,,,,,,,,,,left,3.413,Good-humored,Overestimator,Underestimator,Overestimator,2,0,26,26,53,1
,,,,,,,,,,Good,53,58664,2022-05-02_11h41.54.609,SelfAnchoring,2021.2.3,Win32,60.0240096,,,,,,,,,,,,,,right,4.398,Good,Overestimator,Underestimator,Underestimator,1,0,27,27,52,1
,,,,,,,,,,Polished,94,58664,2022-05-02_11h41.54.609,SelfAnchoring,2021.2.3,Win32,60.0240096,,,,,,,,,,,,,,right,3.505,Polished,Overestimator,Underestimator,Underestimator,1,0,28,28,93,1
,,,,,,,,,,Peaceful,89,58664,2022-05-02_11h41.54.609,SelfAnchoring,2021.2.3,Win32,60.0240096,,,,,,,,,,,,,,right,2.393,Peaceful,Overestimator,Underestimator,Underestimator,1,0,29,29,88,1
,,,,,,,,,,Sentimental,117,58664,2022-05-02_11h41.54.609,SelfAnchoring,2021.2.3,Win32,60.0240096,,,,,,,,,,,,,,right,2.386,Sentimental,Overestimator,Underestimator,Underestimator,1,0,30,30,116,1
,,,,,,,,,,Purposeful,102,58664,2022-05-02_11h41.54.609,SelfAnchoring,2021.2.3,Win32,60.0240096,,,,,,,,,,,,,,left,4.817,Purposeful,Overestimator,Underestimator,Overestimator,2,0,31,31,101,1
,,,,,,,,,,Fearless,42,58664,2022-05-02_11h41.54.609,SelfAnchoring,2021.2.3,Win32,60.0240096,,,,,,,,,,,,,,left,2.445,Fearless,Overestimator,Underestimator,Overestimator,2,0,32,32,41,1
,,,,,,,,,,Passionate,88,58664,2022-05-02_11h41.54.609,SelfAnchoring,2021.2.3,Win32,60.0240096,,,,,,,,,,,,,,left,2.709,Passionate,Overestimator,Underestimator,Overestimator,2,0,33,33,87,1
,,,,,,,,,,Orderly,84,58664,2022-05-02_11h41.54.609,SelfAnchoring,2021.2.3,Win32,60.0240096,,,,,,,,,,,,,,right,2.138,Orderly,Overestimator,Underestimator,Underestimator,1,0,34,34,83,1
,,,,,,,,,,Democratic,29,58664,2022-05-02_11h41.54.609,SelfAnchoring,2021.2.3,Win32,60.0240096,,,,,,,,,,,,,,left,12.405,Democratic,Overestimator,Underestimator,Overestimator,2,0,35,35,28,1
,,,,,,,,,,Natural,78,58664,2022-05-02_11h41.54.609,SelfAnchoring,2021.2.3,Win32,60.0240096,,,,,,,,,,,,,,right,2.971,Natural,Overestimator,Underestimator,Underestimator,1,0,36,36,77,1
,,,,,,,,,,Level-headed,70,58664,2022-05-02_11h41.54.609,SelfAnchoring,2021.2.3,Win32,60.0240096,,,,,,,,,,,,,,left,2.862,Level-headed,Overestimator,Underestimator,Overestimator,2,0,37,37,69,1
,,,,,,,,,,Respectable,109,58664,2022-05-02_11h41.54.609,SelfAnchoring,2021.2.3,Win32,60.0240096,,,,,,,,,,,,,,right,4.04,Respectable,Overestimator,Underestimator,Underestimator,1,0,38,38,108,1
,,,,,,,,,,Punctual,101,58664,2022-05-02_11h41.54.609,SelfAnchoring,2021.2.3,Win32,60.0240096,,,,,,,,,,,,,,left,2.863,Punctual,Overestimator,Underestimator,Overestimator,2,0,39,39,100,1
,,,,,,,,,,Friendly,46,58664,2022-05-02_11h41.54.609,SelfAnchoring,2021.2.3,Win32,60.0240096,,,,,,,,,,,,,,right,3.334,Friendly,Overestimator,Underestimator,Underestimator,1,0,40,40,45,1
,,,,,,,,,,Studious,126,58664,2022-05-02_11h41.54.609,SelfAnchoring,2021.2.3,Win32,60.0240096,,,,,,,,,,,,,,left,1.586,Studious,Overestimator,Underestimator,Overestimator,2,0,41,41,125,1
,,,,,,,,,,Smart,120,58664,2022-05-02_11h41.54.609,SelfAnchoring,2021.2.3,Win32,60.0240096,,,,,,,,,,,,,,left,1.748,Smart,Overestimator,Underestimator,Overestimator,2,0,42,42,119,1
,,,,,,,,,,Courageous,24,58664,2022-05-02_11h41.54.609,SelfAnchoring,2021.2.3,Win32,60.0240096,,,,,,,,,,,,,,right,6.527,Courageous,Overestimator,Underestimator,Underestimator,1,0,43,43,23,1
,,,,,,,,,,Industrious,64,58664,2022-05-02_11h41.54.609,SelfAnchoring,2021.2.3,Win32,60.0240096,,,,,,,,,,,,,,right,1.994,Industrious,Overestimator,Underestimator,Underestimator,1,0,44,44,63,1
,,,,,,,,,,Wise,147,58664,2022-05-02_11h41.54.609,SelfAnchoring,2021.2.3,Win32,60.0240096,,,,,,,,,,,,,,left,4.202,Wise,Overestimator,Underestimator,Overestimator,2,0,45,45,146,1
,,,,,,,,,,Respectful,110,58664,2022-05-02_11h41.54.609,SelfAnchoring,2021.2.3,Win32,60.0240096,,,,,,,,,,,,,,right,3.039,Respectful,Overestimator,Underestimator,Underestimator,1,0,46,46,109,1
,,,,,,,,,,Foresighted,44,58664,2022-05-02_11h41.54.609,SelfAnchoring,2021.2.3,Win32,60.0240096,,,,,,,,,,,,,,left,1.837,Foresighted,Overestimator,Underestimator,Overestimator,2,0,47,47,43,1
,,,,,,,,,,Concise,16,58664,2022-05-02_11h41.54.609,SelfAnchoring,2021.2.3,Win32,60.0240096,,,,,,,,,,,,,,right,1.838,Concise,Overestimator,Underestimator,Underestimator,1,0,48,48,15,1
,,,,,,,,,,Persistent,92,58664,2022-05-02_11h41.54.609,SelfAnchoring,2021.2.3,Win32,60.0240096,,,,,,,,,,,,,,left,2.264,Persistent,Overestimator,Underestimator,Overestimator,2,0,49,49,91,1
,,,,,,,,,,Accurate,1,58664,2022-05-02_11h41.54.609,SelfAnchoring,2021.2.3,Win32,60.0240096,,,,,,,,,,,,,,left,3.901,Accurate,Overestimator,Underestimator,Overestimator,2,0,50,50,0,1
,,,,,,,,,,Good-tempered,56,58664,2022-05-02_11h41.54.609,SelfAnchoring,2021.2.3,Win32,60.0240096,,,,,,,,,,,,,,right,3.549,Good-tempered,Overestimator,Underestimator,Underestimator,1,0,51,51,55,1
,,,,,,,,,,Nice,80,58664,2022-05-02_11h41.54.609,SelfAnchoring,2021.2.3,Win32,60.0240096,,,,,,,,,,,,,,right,2.204,Nice,Overestimator,Underestimator,Underestimator,1,0,52,52,79,1
,,,,,,,,,,Enthusiastic,36,58664,2022-05-02_11h41.54.609,SelfAnchoring,2021.2.3,Win32,60.0240096,,,,,,,,,,,,,,left,1.164,Enthusiastic,Overestimator,Underestimator,Overestimator,2,0,53,53,35,1
,,,,,,,,,,Fun,47,58664,2022-05-02_11h41.54.609,SelfAnchoring,2021.2.3,Win32,60.0240096,,,,,,,,,,,,,,left,1.962,Fun,Overestimator,Underestimator,Overestimator,2,0,54,54,46,1
,,,,,,,,,,Sensitive,116,58664,2022-05-02_11h41.54.609,SelfAnchoring,2021.2.3,Win32,60.0240096,,,,,,,,,,,,,,right,2.646,Sensitive,Overestimator,Underestimator,Underestimator,1,0,55,55,115,1
,,,,,,,,,,Realistic,106,58664,2022-05-02_11h41.54.609,SelfAnchoring,2021.2.3,Win32,60.0240096,,,,,,,,,,,,,,left,2.771,Realistic,Overestimator,Underestimator,Overestimator,2,0,56,56,105,1
,,,,,,,,,,Disciplined,32,58664,2022-05-02_11h41.54.609,SelfAnchoring,2021.2.3,Win32,60.0240096,,,,,,,,,,,,,,left,1.849,Disciplined,Overestimator,Underestimator,Overestimator,2,0,57,57,31,1
,,,,,,,,,,Thoughtful,129,58664,2022-05-02_11h41.54.609,SelfAnchoring,2021.2.3,Win32,60.0240096,,,,,,,,,,,,,,right,7.205,Thoughtful,Overestimator,Underestimator,Underestimator,1,0,58,58,128,1
,,,,,,,,,,Healthy,58,58664,2022-05-02_11h41.54.609,SelfAnchoring,2021.2.3,Win32,60.0240096,,,,,,,,,,,,,,right,1.147,Healthy,Overestimator,Underestimator,Underestimator,1,0,59,59,57,1
,,,,,,,,,,Original,85,58664,2022-05-02_11h41.54.609,SelfAnchoring,2021.2.3,Win32,60.0240096,,,,,,,,,,,,,,left,3.411,Original,Overestimator,Underestimator,Overestimator,2,0,60,60,84,1
,,,,,,,,,,Subtle,127,58664,2022-05-02_11h41.54.609,SelfAnchoring,2021.2.3,Win32,60.0240096,,,,,,,,,,,,,,right,2.704,Subtle,Overestimator,Underestimator,Underestimator,1,0,61,61,126,1
,,,,,,,,,,Casual,5,58664,2022-05-02_11h41.54.609,SelfAnchoring,2021.2.3,Win32,60.0240096,,,,,,,,,,,,,,right,1.269,Casual,Overestimator,Underestimator,Underestimator,1,0,62,62,4,1
,,,,,,,,,,Understanding,134,58664,2022-05-02_11h41.54.609,SelfAnchoring,2021.2.3,Win32,60.0240096,,,,,,,,,,,,,,left,2.533,Understanding,Overestimator,Underestimator,Overestimator,2,0,63,63,133,1
,,,,,,,,,,Composed,15,58664,2022-05-02_11h41.54.609,SelfAnchoring,2021.2.3,Win32,60.0240096,,,,,,,,,,,,,,right,1.802,Composed,Overestimator,Underestimator,Underestimator,1,0,64,64,14,1
,,,,,,,,,,Capable,4,58664,2022-05-02_11h41.54.609,SelfAnchoring,2021.2.3,Win32,60.0240096,,,,,,,,,,,,,,left,1.736,Capable,Overestimator,Underestimator,Overestimator,2,0,65,65,3,1
,,,,,,,,,,Fair,40,58664,2022-05-02_11h41.54.609,SelfAnchoring,2021.2.3,Win32,60.0240096,,,,,,,,,,,,,,right,2.21,Fair,Overestimator,Underestimator,Underestimator,1,0,66,66,39,1
,,,,,,,,,,Frank,45,58664,2022-05-02_11h41.54.609,SelfAnchoring,2021.2.3,Win32,60.0240096,,,,,,,,,,,,,,left,3.607,Frank,Overestimator,Underestimator,Overestimator,2,0,67,67,44,1
,,,,,,,,,,Open-minded,82,58664,2022-05-02_11h41.54.609,SelfAnchoring,2021.2.3,Win32,60.0240096,,,,,,,,,,,,,,right,2.52,Open-minded,Overestimator,Underestimator,Underestimator,1,0,68,68,81,1
,,,,,,,,,,Clear-headed,10,58664,2022-05-02_11h41.54.609,SelfAnchoring,2021.2.3,Win32,60.0240096,,,,,,,,,,,,,,right,6.402,Clear-headed,Overestimator,Underestimator,Underestimator,1,0,69,69,9,1
,,,,,,,,,,Mature,75,58664,2022-05-02_11h41.54.609,SelfAnchoring,2021.2.3,Win32,60.0240096,,,,,,,,,,,,,,left,1.77,Mature,Overestimator,Underestimator,Overestimator,2,0,70,70,74,1
,,,,,,,,,,Outspoken,87,58664,2022-05-02_11h41.54.609,SelfAnchoring,2021.2.3,Win32,60.0240096,,,,,,,,,,,,,,right,3.548,Outspoken,Overestimator,Underestimator,Underestimator,1,0,71,71,86,1
,,,,,,,,,,Optimistic,83,58664,2022-05-02_11h41.54.609,SelfAnchoring,2021.2.3,Win32,60.0240096,,,,,,,,,,,,,,right,2.611,Optimistic,Overestimator,Underestimator,Underestimator,1,0,72,72,82,1
,,,,,,,,,,Clean-cut,9,58664,2022-05-02_11h41.54.609,SelfAnchoring,2021.2.3,Win32,60.0240096,,,,,,,,,,,,,,right,1.347,Clean-cut,Overestimator,Underestimator,Underestimator,1,0,73,73,8,1
,,,,,,,,,,Confident,17,58664,2022-05-02_11h41.54.609,SelfAnchoring,2021.2.3,Win32,60.0240096,,,,,,,,,,,,,,right,2.902,Confident,Overestimator,Underestimator,Underestimator,1,0,74,74,16,1
,,,,,,,,,,Scientific,112,58664,2022-05-02_11h41.54.609,SelfAnchoring,2021.2.3,Win32,60.0240096,,,,,,,,,,,,,,left,2.438,Scientific,Overestimator,Underestimator,Overestimator,2,0,75,75,111,1
,,,,,,,,,,Skillful,119,58664,2022-05-02_11h41.54.609,SelfAnchoring,2021.2.3,Win32,60.0240096,,,,,,,,,,,,,,left,6.695,Skillful,Overestimator,Underestimator,Overestimator,2,0,76,76,118,1
,,,,,,,,,,Innocent,65,58664,2022-05-02_11h41.54.609,SelfAnchoring,2021.2.3,Win32,60.0240096,,,,,,,,,,,,,,right,1.202,Innocent,Overestimator,Underestimator,Underestimator,1,0,77,77,64,1
,,,,,,,,,,Sincere,118,58664,2022-05-02_11h41.54.609,SelfAnchoring,2021.2.3,Win32,60.0240096,,,,,,,,,,,,,,right,2.839,Sincere,Overestimator,Underestimator,Underestimator,1,0,78,78,117,1
,,,,,,,,,,Deliberate,27,58664,2022-05-02_11h41.54.609,SelfAnchoring,2021.2.3,Win32,60.0240096,,,,,,,,,,,,,,left,1.159,Deliberate,Overestimator,Underestimator,Overestimator,2,0,79,79,26,1
,,,,,,,,,,Cooperative,22,58664,2022-05-02_11h41.54.609,SelfAnchoring,2021.2.3,Win32,60.0240096,,,,,,,,,,,,,,left,1.039,Cooperative,Overestimator,Underestimator,Overestimator,2,0,80,80,21,1
,,,,,,,,,,Clean,8,58664,2022-05-02_11h41.54.609,SelfAnchoring,2021.2.3,Win32,60.0240096,,,,,,,,,,,,,,right,1.411,Clean,Overestimator,Underestimator,Underestimator,1,0,81,81,7,1
,,,,,,,,,,Sociable,121,58664,2022-05-02_11h41.54.609,SelfAnchoring,2021.2.3,Win32,60.0240096,,,,,,,,,,,,,,right,1.126,Sociable,Overestimator,Underestimator,Underestimator,1,0,82,82,120,1
,,,,,,,,,,Charming,7,58664,2022-05-02_11h41.54.609,SelfAnchoring,2021.2.3,Win32,60.0240096,,,,,,,,,,,,,,right,1.067,Charming,Overestimator,Underestimator,Underestimator,1,0,83,83,6,1
,,,,,,,,,,Reserved,108,58664,2022-05-02_11h41.54.609,SelfAnchoring,2021.2.3,Win32,60.0240096,,,,,,,,,,,,,,right,4.852,Reserved,Overestimator,Underestimator,Underestimator,1,0,84,84,107,1
,,,,,,,,,,Humble,62,58664,2022-05-02_11h41.54.609,SelfAnchoring,2021.2.3,Win32,60.0240096,,,,,,,,,,,,,,left,6.456,Humble,Overestimator,Underestimator,Overestimator,2,0,85,85,61,1
,,,,,,,,,,Humorous,63,58664,2022-05-02_11h41.54.609,SelfAnchoring,2021.2.3,Win32,60.0240096,,,,,,,,,,,,,,left,1.488,Humorous,Overestimator,Underestimator,Overestimator,2,0,86,86,62,1
,,,,,,,,,,Warm,142,58664,2022-05-02_11h41.54.609,SelfAnchoring,2021.2.3,Win32,60.0240096,,,,,,,,,,,,,,left,2.556,Warm,Overestimator,Underestimator,Overestimator,2,0,87,87,141,1
,,,,,,,,,,Elegant,35,58664,2022-05-02_11h41.54.609,SelfAnchoring,2021.2.3,Win32,60.0240096,,,,,,,,,,,,,,right,3.044,Elegant,Overestimator,Underestimator,Underestimator,1,0,88,88,34,1
,,,,,,,,,,Comfortable,12,58664,2022-05-02_11h41.54.609,SelfAnchoring,2021.2.3,Win32,60.0240096,,,,,,,,,,,,,,right,2.864,Comfortable,Overestimator,Underestimator,Underestimator,1,0,89,89,11,1
,,,,,,,,,,Glad,52,58664,2022-05-02_11h41.54.609,SelfAnchoring,2021.2.3,Win32,60.0240096,,,,,,,,,,,,,,right,2.477,Glad,Overestimator,Underestimator,Underestimator,1,0,90,90,51,1
,,,,,,,,,,Cordial,23,58664,2022-05-02_11h41.54.609,SelfAnchoring,2021.2.3,Win32,60.0240096,,,,,,,,,,,,,,right,2.04,Cordial,Overestimator,Underestimator,Underestimator,1,0,91,91,22,1
,,,,,,,,,,Straightforward,125,58664,2022-05-02_11h41.54.609,SelfAnchoring,2021.2.3,Win32,60.0240096,,,,,,,,,,,,,,right,2.656,Straightforward,Overestimator,Underestimator,Underestimator,1,0,92,92,124,1
,,,,,,,,,,Knowledgeable,68,58664,2022-05-02_11h41.54.609,SelfAnchoring,2021.2.3,Win32,60.0240096,,,,,,,,,,,,,,left,0.849,Knowledgeable,Overestimator,Underestimator,Overestimator,2,0,93,93,67,1
,,,,,,,,,,Precise,97,58664,2022-05-02_11h41.54.609,SelfAnchoring,2021.2.3,Win32,60.0240096,,,,,,,,,,,,,,left,3.285,Precise,Overestimator,Underestimator,Overestimator,2,0,94,94,96,1
,,,,,,,,,,Economical,34,58664,2022-05-02_11h41.54.609,SelfAnchoring,2021.2.3,Win32,60.0240096,,,,,,,,,,,,,,right,2.358,Economical,Overestimator,Underestimator,Underestimator,1,0,95,95,33,1
,,,,,,,,,,Gentle,50,58664,2022-05-02_11h41.54.609,SelfAnchoring,2021.2.3,Win32,60.0240096,,,,,,,,,,,,,,right,1.97,Gentle,Overestimator,Underestimator,Underestimator,1,0,96,96,49,1
,,,,,,,,,,Well-mannered,143,58664,2022-05-02_11h41.54.609,SelfAnchoring,2021.2.3,Win32,60.0240096,,,,,,,,,,,,,,right,3.072,Well-mannered,Overestimator,Underestimator,Underestimator,1,0,97,97,142,1
,,,,,,,,,,Persevering,91,58664,2022-05-02_11h41.54.609,SelfAnchoring,2021.2.3,Win32,60.0240096,,,,,,,,,,,,,,left,1.177,Persevering,Overestimator,Underestimator,Overestimator,2,0,98,98,90,1
,,,,,,,,,,Charitable,6,58664,2022-05-02_11h41.54.609,SelfAnchoring,2021.2.3,Win32,60.0240096,,,,,,,,,,,,,,left,1.539,Charitable,Overestimator,Underestimator,Overestimator,2,0,99,99,5,1
,,,,,,,,,,Benevolent,2,58664,2022-05-02_11h41.54.609,SelfAnchoring,2021.2.3,Win32,60.0240096,,,,,,,,,,,,,,right,9.166,Benevolent,Overestimator,Underestimator,Underestimator,1,0,100,100,1,1
,,,,,,,,,,Verbal,140,58664,2022-05-02_11h41.54.609,SelfAnchoring,2021.2.3,Win32,60.0240096,,,,,,,,,,,,,,left,2.479,Verbal,Overestimator,Underestimator,Overestimator,2,0,101,101,139,1
,,,,,,,,,,Communicative,13,58664,2022-05-02_11h41.54.609,SelfAnchoring,2021.2.3,Win32,60.0240096,,,,,,,,,,,,,,left,1.451,Communicative,Overestimator,Underestimator,Overestimator,2,0,102,102,12,1
,,,,,,,,,,Considerate,19,58664,2022-05-02_11h41.54.609,SelfAnchoring,2021.2.3,Win32,60.0240096,,,,,,,,,,,,,,left,4.676,Considerate,Overestimator,Underestimator,Overestimator,2,0,103,103,18,1
,,,,,,,,,,Hospitable,61,58664,2022-05-02_11h41.54.609,SelfAnchoring,2021.2.3,Win32,60.0240096,,,,,,,,,,,,,,right,1.351,Hospitable,Overestimator,Underestimator,Underestimator,1,0,104,104,60,1
,,,,,,,,,,Unselfish,138,58664,2022-05-02_11h41.54.609,SelfAnchoring,2021.2.3,Win32,60.0240096,,,,,,,,,,,,,,left,5.073,Unselfish,Overestimator,Underestimator,Overestimator,2,0,105,105,137,1
,,,,,,,,,,Giving,51,58664,2022-05-02_11h41.54.609,SelfAnchoring,2021.2.3,Win32,60.0240096,,,,,,,,,,,,,,left,2.905,Giving,Overestimator,Underestimator,Overestimator,2,0,106,106,50,1
,,,,,,,,,,Mathematical,74,58664,2022-05-02_11h41.54.609,SelfAnchoring,2021.2.3,Win32,60.0240096,,,,,,,,,,,,,,left,1.266,Mathematical,Overestimator,Underestimator,Overestimator,2,0,107,107,73,1
,,,,,,,,,,Prideful,98,58664,2022-05-02_11h41.54.609,SelfAnchoring,2021.2.3,Win32,60.0240096,,,,,,,,,,,,,,right,1.885,Prideful,Overestimator,Underestimator,Underestimator,1,0,108,108,97,1
,,,,,,,,,,Flexible,43,58664,2022-05-02_11h41.54.609,SelfAnchoring,2021.2.3,Win32,60.0240096,,,,,,,,,,,,,,left,3.551,Flexible,Overestimator,Underestimator,Overestimator,2,0,109,109,42,1
,,,,,,,,,,Quick-witted,103,58664,2022-05-02_11h41.54.609,SelfAnchoring,2021.2.3,Win32,60.0240096,,,,,,,,,,,,,,left,1.784,Quick-witted,Overestimator,Underestimator,Overestimator,2,0,110,110,102,1
,,,,,,,,,,Normal,81,58664,2022-05-02_11h41.54.609,SelfAnchoring,2021.2.3,Win32,60.0240096,,,,,,,,,,,,,,left,4.582,Normal,Overestimator,Underestimator,Overestimator,2,0,111,111,80,1
,,,,,,,,,,Talkative,128,58664,2022-05-02_11h41.54.609,SelfAnchoring,2021.2.3,Win32,60.0240096,,,,,,,,,,,,,,right,1.29,Talkative,Overestimator,Underestimator,Underestimator,1,0,112,112,127,1
,,,,,,,,,,Untiring,139,58664,2022-05-02_11h41.54.609,SelfAnchoring,2021.2.3,Win32,60.0240096,,,,,,,,,,,,,,right,6.581,Untiring,Overestimator,Underestimator,Underestimator,1,0,113,113,138,1
,,,,,,,,,,Well-read,145,58664,2022-05-02_11h41.54.609,SelfAnchoring,2021.2.3,Win32,60.0240096,,,,,,,,,,,,,,left,4.22,Well-read,Overestimator,Underestimator,Overestimator,2,0,114,114,144,1
,,,,,,,,,,Modern,76,58664,2022-05-02_11h41.54.609,SelfAnchoring,2021.2.3,Win32,60.0240096,,,,,,,,,,,,,,right,1.52,Modern,Overestimator,Underestimator,Underestimator,1,0,115,115,75,1
,,,,,,,,,,Stable,123,58664,2022-05-02_11h41.54.609,SelfAnchoring,2021.2.3,Win32,60.0240096,,,,,,,,,,,,,,right,1.124,Stable,Overestimator,Underestimator,Underestimator,1,0,116,116,122,1
,,,,,,,,,,Steady,124,58664,2022-05-02_11h41.54.609,SelfAnchoring,2021.2.3,Win32,60.0240096,,,,,,,,,,,,,,right,1.816,Steady,Overestimator,Underestimator,Underestimator,1,0,117,117,123,1
,,,,,,,,,,Eager,33,58664,2022-05-02_11h41.54.609,SelfAnchoring,2021.2.3,Win32,60.0240096,,,,,,,,,,,,,,right,1.407,Eager,Overestimator,Underestimator,Underestimator,1,0,118,118,32,1
,,,,,,,,,,Prudent,100,58664,2022-05-02_11h41.54.609,SelfAnchoring,2021.2.3,Win32,60.0240096,,,,,,,,,,,,,,left,3.352,Prudent,Overestimator,Underestimator,Overestimator,2,0,119,119,99,1
,,,,,,,,,,Deep,26,58664,2022-05-02_11h41.54.609,SelfAnchoring,2021.2.3,Win32,60.0240096,,,,,,,,,,,,,,right,2.804,Deep,Overestimator,Underestimator,Underestimator,1,0,120,120,25,1
,,,,,,,,,,Contemplative,21,58664,2022-05-02_11h41.54.609,SelfAnchoring,2021.2.3,Win32,60.0240096,,,,,,,,,,,,,,right,2.935,Contemplative,Overestimator,Underestimator,Underestimator,1,0,121,121,20,1
,,,,,,,,,,Compassionate,14,58664,2022-05-02_11h41.54.609,SelfAnchoring,2021.2.3,Win32,60.0240096,,,,,,,,,,,,,,left,2.285,Compassionate,Overestimator,Underestimator,Overestimator,2,0,122,122,13,1
,,,,,,,,,,Inquisitive,66,58664,2022-05-02_11h41.54.609,SelfAnchoring,2021.2.3,Win32,60.0240096,,,,,,,,,,,,,,left,1.778,Inquisitive,Overestimator,Underestimator,Overestimator,2,0,123,123,65,1
,,,,,,,,,,Self-controlled,113,58664,2022-05-02_11h41.54.609,SelfAnchoring,2021.2.3,Win32,60.0240096,,,,,,,,,,,,,,left,4.856,Self-controlled,Overestimator,Underestimator,Overestimator,2,0,124,124,112,1
,,,,,,,,,,Unprejudiced,136,58664,2022-05-02_11h41.54.609,SelfAnchoring,2021.2.3,Win32,60.0240096,,,,,,,,,,,,,,right,2.606,Unprejudiced,Overestimator,Underestimator,Underestimator,1,0,125,125,135,1
,,,,,,,,,,Philosophical,93,58664,2022-05-02_11h41.54.609,SelfAnchoring,2021.2.3,Win32,60.0240096,,,,,,,,,,,,,,right,3.587,Philosophical,Overestimator,Underestimator,Underestimator,1,0,126,126,92,1
,,,,,,,,,,Well-organized,144,58664,2022-05-02_11h41.54.609,SelfAnchoring,2021.2.3,Win32,60.0240096,,,,,,,,,,,,,,left,2.153,Well-organized,Overestimator,Underestimator,Overestimator,2,0,127,127,143,1
,,,,,,,,,,Unafraid,132,58664,2022-05-02_11h41.54.609,SelfAnchoring,2021.2.3,Win32,60.0240096,,,,,,,,,,,,,,left,3.153,Unafraid,Overestimator,Underestimator,Overestimator,2,0,128,128,131,1
,,,,,,,,,,Dependable,30,58664,2022-05-02_11h41.54.609,SelfAnchoring,2021.2.3,Win32,60.0240096,,,,,,,,,,,,,,left,6.911,Dependable,Overestimator,Underestimator,Overestimator,2,0,129,129,29,1
,,,,,,,,,,Extraverted,39,58664,2022-05-02_11h41.54.609,SelfAnchoring,2021.2.3,Win32,60.0240096,,,,,,,,,,,,,,right,7.311,Extraverted,Overestimator,Underestimator,Underestimator,1,0,130,130,38,1
,,,,,,,,,,Graceful,57,58664,2022-05-02_11h41.54.609,SelfAnchoring,2021.2.3,Win32,60.0240096,,,,,,,,,,,,,,right,0.989,Graceful,Overestimator,Underestimator,Underestimator,1,0,131,131,56,1
,,,,,,,,,,Ethical,37,58664,2022-05-02_11h41.54.609,SelfAnchoring,2021.2.3,Win32,60.0240096,,,,,,,,,,,,,,left,2.13,Ethical,Overestimator,Underestimator,Overestimator,2,0,132,132,36,1
,,,,,,,,,,Neat,79,58664,2022-05-02_11h41.54.609,SelfAnchoring,2021.2.3,Win32,60.0240096,,,,,,,,,,,,,,right,1.715,Neat,Overestimator,Underestimator,Underestimator,1,0,133,133,78,1
,,,,,,,,,,Unpretentious,137,58664,2022-05-02_11h41.54.609,SelfAnchoring,2021.2.3,Win32,60.0240096,,,,,,,,,,,,,,left,3.432,Unpretentious,Overestimator,Underestimator,Overestimator,2,0,134,134,136,1
,,,,,,,,,,Clever,11,58664,2022-05-02_11h41.54.609,SelfAnchoring,2021.2.3,Win32,60.0240096,,,,,,,,,,,,,,right,3.722,Clever,Overestimator,Underestimator,Underestimator,1,0,135,135,10,1
,,,,,,,,,,Tough,131,58664,2022-05-02_11h41.54.609,SelfAnchoring,2021.2.3,Win32,60.0240096,,,,,,,,,,,,,,left,1.384,Tough,Overestimator,Underestimator,Overestimator,2,0,136,136,130,1
,,,,,,,,,,Unassuming,133,58664,2022-05-02_11h41.54.609,SelfAnchoring,2021.2.3,Win32,60.0240096,,,,,,,,,,,,,,right,1.053,Unassuming,Overestimator,Underestimator,Underestimator,1,0,137,137,132,1
,,,,,,,,,,Outgoing,86,58664,2022-05-02_11h41.54.609,SelfAnchoring,2021.2.3,Win32,60.0240096,,,,,,,,,,,,,,left,8.215,Outgoing,Overestimator,Underestimator,Overestimator,2,0,138,138,85,1
,,,,,,,,,,Well-spoken,146,58664,2022-05-02_11h41.54.609,SelfAnchoring,2021.2.3,Win32,60.0240096,,,,,,,,,,,,,,right,8.172,Well-spoken,Overestimator,Underestimator,Underestimator,1,0,139,139,145,1
,,,,,,,,,,Inventive,67,58664,2022-05-02_11h41.54.609,SelfAnchoring,2021.2.3,Win32,60.0240096,,,,,,,,,,,,,,left,1.517,Inventive,Overestimator,Underestimator,Overestimator,2,0,140,140,66,1
,,,,,,,,,,Constructive,20,58664,2022-05-02_11h41.54.609,SelfAnchoring,2021.2.3,Win32,60.0240096,,,,,,,,,,,,,,left,1.642,Constructive,Overestimator,Underestimator,Overestimator,2,0,141,141,19,1
,,,,,,,,,,Faithful,41,58664,2022-05-02_11h41.54.609,SelfAnchoring,2021.2.3,Win32,60.0240096,,,,,,,,,,,,,,right,1.767,Faithful,Overestimator,Underestimator,Underestimator,1,0,142,142,40,1
,,,,,,,,,,Funny,48,58664,2022-05-02_11h41.54.609,SelfAnchoring,2021.2.3,Win32,60.0240096,,,,,,,,,,,,,,left,2.452,Funny,Overestimator,Underestimator,Overestimator,2,0,143,143,47,1
,,,,,,,,,,Generous,49,58664,2022-05-02_11h41.54.609,SelfAnchoring,2021.2.3,Win32,60.0240096,,,,,,,,,,,,,,left,1.586,Generous,Overestimator,Underestimator,Overestimator,2,0,144,144,48,1
,,,,,,,,,,Loyal,72,58664,2022-05-02_11h41.54.609,SelfAnchoring,2021.2.3,Win32,60.0240096,,,,,,,,,,,,,,left,3.125,Loyal,Overestimator,Underestimator,Overestimator,2,0,145,145,71,1
,,,,,,,,,,Good-natured,55,58664,2022-05-02_11h41.54.609,SelfAnchoring,2021.2.3,Win32,60.0240096,,,,,,,,,,,,,,space,4.785,Good-natured,Overestimator,Underestimator,-99,-99,0,146,146,54,1
,,,,,,,,,,Quiet,104,58664,2022-05-02_11h41.54.609,SelfAnchoring,2021.2.3,Win32,60.0240096,,,,,,,,,,,,,,right,3.284,Quiet,Overestimator,Underestimator,Underestimator,1,0,147,147,103,1
