Estimator,toCont.keys,toCont.rt,SE.keys,SE.rt,trials_2.thisRepN,trials_2.thisTrialN,trials_2.thisN,trials_2.thisIndex,trials_2.ran,trait,Idx,participant,date,expName,psychopyVersion,OS,frameRate,toCont_2.keys,toCont_2.rt,EnterGuess.text,Guess,dotestLoop.thisRepN,dotestLoop.thisTrialN,dotestLoop.thisN,dotestLoop.thisIndex,dotestLoop.ran,dp,Confirm2.text,toCont_3.keys,toCont_3.rt,resp.keys,resp.rt,traitC,optionLeft,optionRight,optionChoice,choiceResp,choices.thisRepN,choices.thisTrialN,choices.thisN,choices.thisIndex,choices.ran
Overestimator,space,12.2129,7,6.1507,0,0,0,20,1,Understanding,134,59058,2022-05-01_20h24.41.522,SelfAnchoring,2021.2.3,MacIntel,59.84082341,,,,,,,,,,,,,,,,,,,,,,,,,
,,,4,31.6153,0,1,1,77,1,Unpretentious,137,59058,2022-05-01_20h24.41.522,SelfAnchoring,2021.2.3,MacIntel,59.84082341,,,,,,,,,,,,,,,,,,,,,,,,,
,,,6,3.8418,0,2,2,67,1,Calm,3,59058,2022-05-01_20h24.41.522,SelfAnchoring,2021.2.3,MacIntel,59.84082341,,,,,,,,,,,,,,,,,,,,,,,,,
,,,6,2.5111,0,3,3,57,1,Capable,4,59058,2022-05-01_20h24.41.522,SelfAnchoring,2021.2.3,MacIntel,59.84082341,,,,,,,,,,,,,,,,,,,,,,,,,
,,,7,2.1547,0,4,4,18,1,Enthusiastic,36,59058,2022-05-01_20h24.41.522,SelfAnchoring,2021.2.3,MacIntel,59.84082341,,,,,,,,,,,,,,,,,,,,,,,,,
,,,4,3.1238,0,5,5,53,1,Innocent,65,59058,2022-05-01_20h24.41.522,SelfAnchoring,2021.2.3,MacIntel,59.84082341,,,,,,,,,,,,,,,,,,,,,,,,,
,,,4,1.7866,0,6,6,30,1,Casual,5,59058,2022-05-01_20h24.41.522,SelfAnchoring,2021.2.3,MacIntel,59.84082341,,,,,,,,,,,,,,,,,,,,,,,,,
,,,2,2.3592,0,7,7,45,1,Outspoken,87,59058,2022-05-01_20h24.41.522,SelfAnchoring,2021.2.3,MacIntel,59.84082341,,,,,,,,,,,,,,,,,,,,,,,,,
,,,5,3.4584,0,8,8,36,1,Level-headed,70,59058,2022-05-01_20h24.41.522,SelfAnchoring,2021.2.3,MacIntel,59.84082341,,,,,,,,,,,,,,,,,,,,,,,,,
,,,7,2.4733,0,9,9,56,1,Contemplative,21,59058,2022-05-01_20h24.41.522,SelfAnchoring,2021.2.3,MacIntel,59.84082341,,,,,,,,,,,,,,,,,,,,,,,,,
,,,5,3.7975,0,10,10,90,1,Normal,81,59058,2022-05-01_20h24.41.522,SelfAnchoring,2021.2.3,MacIntel,59.84082341,,,,,,,,,,,,,,,,,,,,,,,,,
,,,2,2.4278,0,11,11,89,1,Fearless,42,59058,2022-05-01_20h24.41.522,SelfAnchoring,2021.2.3,MacIntel,59.84082341,,,,,,,,,,,,,,,,,,,,,,,,,
,,,6,3.0586,0,12,12,50,1,Deep,26,59058,2022-05-01_20h24.41.522,SelfAnchoring,2021.2.3,MacIntel,59.84082341,,,,,,,,,,,,,,,,,,,,,,,,,
,,,4,2.6395,0,13,13,0,1,Modern,76,59058,2022-05-01_20h24.41.522,SelfAnchoring,2021.2.3,MacIntel,59.84082341,,,,,,,,,,,,,,,,,,,,,,,,,
,,,5,3.6271,0,14,14,27,1,Quiet,104,59058,2022-05-01_20h24.41.522,SelfAnchoring,2021.2.3,MacIntel,59.84082341,,,,,,,,,,,,,,,,,,,,,,,,,
,,,6,4.2353,0,15,15,75,1,Humble,62,59058,2022-05-01_20h24.41.522,SelfAnchoring,2021.2.3,MacIntel,59.84082341,,,,,,,,,,,,,,,,,,,,,,,,,
,,,6,1.9255,0,16,16,62,1,Lively,71,59058,2022-05-01_20h24.41.522,SelfAnchoring,2021.2.3,MacIntel,59.84082341,,,,,,,,,,,,,,,,,,,,,,,,,
,,,7,1.6529,0,17,17,58,1,Punctual,101,59058,2022-05-01_20h24.41.522,SelfAnchoring,2021.2.3,MacIntel,59.84082341,,,,,,,,,,,,,,,,,,,,,,,,,
,,,4,2.775,0,18,18,31,1,Funny,48,59058,2022-05-01_20h24.41.522,SelfAnchoring,2021.2.3,MacIntel,59.84082341,,,,,,,,,,,,,,,,,,,,,,,,,
,,,7,2.2545,0,19,19,16,1,Faithful,41,59058,2022-05-01_20h24.41.522,SelfAnchoring,2021.2.3,MacIntel,59.84082341,,,,,,,,,,,,,,,,,,,,,,,,,
,,,6,2.6162,0,20,20,68,1,Concise,16,59058,2022-05-01_20h24.41.522,SelfAnchoring,2021.2.3,MacIntel,59.84082341,,,,,,,,,,,,,,,,,,,,,,,,,
,,,6,1.8397,0,21,21,52,1,Prompt,99,59058,2022-05-01_20h24.41.522,SelfAnchoring,2021.2.3,MacIntel,59.84082341,,,,,,,,,,,,,,,,,,,,,,,,,
,,,5,2.0346,0,22,22,2,1,Positive,95,59058,2022-05-01_20h24.41.522,SelfAnchoring,2021.2.3,MacIntel,59.84082341,,,,,,,,,,,,,,,,,,,,,,,,,
,,,6,2.021,0,23,23,37,1,Eager,33,59058,2022-05-01_20h24.41.522,SelfAnchoring,2021.2.3,MacIntel,59.84082341,,,,,,,,,,,,,,,,,,,,,,,,,
,,,5,1.9194,0,24,24,60,1,Versatile,141,59058,2022-05-01_20h24.41.522,SelfAnchoring,2021.2.3,MacIntel,59.84082341,,,,,,,,,,,,,,,,,,,,,,,,,
,,,6,1.7734,0,25,25,55,1,Mature,75,59058,2022-05-01_20h24.41.522,SelfAnchoring,2021.2.3,MacIntel,59.84082341,,,,,,,,,,,,,,,,,,,,,,,,,
,,,5,3.1144,0,26,26,19,1,Honest,60,59058,2022-05-01_20h24.41.522,SelfAnchoring,2021.2.3,MacIntel,59.84082341,,,,,,,,,,,,,,,,,,,,,,,,,
,,,4,1.8707,0,27,27,7,1,Lucky,73,59058,2022-05-01_20h24.41.522,SelfAnchoring,2021.2.3,MacIntel,59.84082341,,,,,,,,,,,,,,,,,,,,,,,,,
,,,7,2.0884,0,28,28,79,1,Delicate,28,59058,2022-05-01_20h24.41.522,SelfAnchoring,2021.2.3,MacIntel,59.84082341,,,,,,,,,,,,,,,,,,,,,,,,,
,,,7,1.4201,0,29,29,88,1,Cooperative,22,59058,2022-05-01_20h24.41.522,SelfAnchoring,2021.2.3,MacIntel,59.84082341,,,,,,,,,,,,,,,,,,,,,,,,,
,,,5,3.9098,0,30,30,64,1,Reserved,108,59058,2022-05-01_20h24.41.522,SelfAnchoring,2021.2.3,MacIntel,59.84082341,,,,,,,,,,,,,,,,,,,,,,,,,
,,,4,2.6646,0,31,31,48,1,Cordial,23,59058,2022-05-01_20h24.41.522,SelfAnchoring,2021.2.3,MacIntel,59.84082341,,,,,,,,,,,,,,,,,,,,,,,,,
,,,5,1.9949,0,32,32,78,1,Ethical,37,59058,2022-05-01_20h24.41.522,SelfAnchoring,2021.2.3,MacIntel,59.84082341,,,,,,,,,,,,,,,,,,,,,,,,,
,,,4,1.8999,0,33,33,69,1,Frank,45,59058,2022-05-01_20h24.41.522,SelfAnchoring,2021.2.3,MacIntel,59.84082341,,,,,,,,,,,,,,,,,,,,,,,,,
,,,4,2.0872,0,34,34,10,1,Inventive,67,59058,2022-05-01_20h24.41.522,SelfAnchoring,2021.2.3,MacIntel,59.84082341,,,,,,,,,,,,,,,,,,,,,,,,,
,,,5,1.8897,0,35,35,32,1,Unprejudiced,136,59058,2022-05-01_20h24.41.522,SelfAnchoring,2021.2.3,MacIntel,59.84082341,,,,,,,,,,,,,,,,,,,,,,,,,
,,,4,1.7369,0,36,36,54,1,Quick-witted,103,59058,2022-05-01_20h24.41.522,SelfAnchoring,2021.2.3,MacIntel,59.84082341,,,,,,,,,,,,,,,,,,,,,,,,,
,,,4,20.204,0,37,37,33,1,Witty,148,59058,2022-05-01_20h24.41.522,SelfAnchoring,2021.2.3,MacIntel,59.84082341,,,,,,,,,,,,,,,,,,,,,,,,,
,,,7,1.7348,0,38,38,82,1,Fair,40,59058,2022-05-01_20h24.41.522,SelfAnchoring,2021.2.3,MacIntel,59.84082341,,,,,,,,,,,,,,,,,,,,,,,,,
,,,7,1.2355,0,39,39,81,1,Rational,105,59058,2022-05-01_20h24.41.522,SelfAnchoring,2021.2.3,MacIntel,59.84082341,,,,,,,,,,,,,,,,,,,,,,,,,
,,,6,1.9849,0,40,40,12,1,Dependable,30,59058,2022-05-01_20h24.41.522,SelfAnchoring,2021.2.3,MacIntel,59.84082341,,,,,,,,,,,,,,,,,,,,,,,,,
,,,4,2.1553,0,41,41,38,1,Well-read,145,59058,2022-05-01_20h24.41.522,SelfAnchoring,2021.2.3,MacIntel,59.84082341,,,,,,,,,,,,,,,,,,,,,,,,,
,,,6,2.0019,0,42,42,21,1,Straightforward,125,59058,2022-05-01_20h24.41.522,SelfAnchoring,2021.2.3,MacIntel,59.84082341,,,,,,,,,,,,,,,,,,,,,,,,,
,,,3,1.9006,0,43,43,29,1,Tough,131,59058,2022-05-01_20h24.41.522,SelfAnchoring,2021.2.3,MacIntel,59.84082341,,,,,,,,,,,,,,,,,,,,,,,,,
,,,6,3.6304,0,44,44,1,1,Precise,97,59058,2022-05-01_20h24.41.522,SelfAnchoring,2021.2.3,MacIntel,59.84082341,,,,,,,,,,,,,,,,,,,,,,,,,
,,,5,2.4078,0,45,45,4,1,Prudent,100,59058,2022-05-01_20h24.41.522,SelfAnchoring,2021.2.3,MacIntel,59.84082341,,,,,,,,,,,,,,,,,,,,,,,,,
,,,4,1.9694,0,46,46,14,1,Graceful,57,59058,2022-05-01_20h24.41.522,SelfAnchoring,2021.2.3,MacIntel,59.84082341,,,,,,,,,,,,,,,,,,,,,,,,,
,,,4,1.6572,0,47,47,83,1,Comfortable,12,59058,2022-05-01_20h24.41.522,SelfAnchoring,2021.2.3,MacIntel,59.84082341,,,,,,,,,,,,,,,,,,,,,,,,,
,,,6,1.9717,0,48,48,17,1,Courageous,24,59058,2022-05-01_20h24.41.522,SelfAnchoring,2021.2.3,MacIntel,59.84082341,,,,,,,,,,,,,,,,,,,,,,,,,
,,,5,2.0104,0,49,49,43,1,Steady,124,59058,2022-05-01_20h24.41.522,SelfAnchoring,2021.2.3,MacIntel,59.84082341,,,,,,,,,,,,,,,,,,,,,,,,,
,,,4,1.7101,0,50,50,44,1,Stable,123,59058,2022-05-01_20h24.41.522,SelfAnchoring,2021.2.3,MacIntel,59.84082341,,,,,,,,,,,,,,,,,,,,,,,,,
,,,6,3.1908,0,51,51,41,1,Persevering,91,59058,2022-05-01_20h24.41.522,SelfAnchoring,2021.2.3,MacIntel,59.84082341,,,,,,,,,,,,,,,,,,,,,,,,,
,,,5,1.5382,0,52,52,35,1,Self-sufficient,115,59058,2022-05-01_20h24.41.522,SelfAnchoring,2021.2.3,MacIntel,59.84082341,,,,,,,,,,,,,,,,,,,,,,,,,
,,,6,2.325,0,53,53,61,1,Self-controlled,113,59058,2022-05-01_20h24.41.522,SelfAnchoring,2021.2.3,MacIntel,59.84082341,,,,,,,,,,,,,,,,,,,,,,,,,
,,,5,2.9409,0,54,54,8,1,Smart,120,59058,2022-05-01_20h24.41.522,SelfAnchoring,2021.2.3,MacIntel,59.84082341,,,,,,,,,,,,,,,,,,,,,,,,,
,,,5,1.5517,0,55,55,72,1,Passionate,88,59058,2022-05-01_20h24.41.522,SelfAnchoring,2021.2.3,MacIntel,59.84082341,,,,,,,,,,,,,,,,,,,,,,,,,
,,,4,6.3638,0,56,56,6,1,Unselfish,138,59058,2022-05-01_20h24.41.522,SelfAnchoring,2021.2.3,MacIntel,59.84082341,,,,,,,,,,,,,,,,,,,,,,,,,
,,,4,1.7705,0,57,57,73,1,Wise,147,59058,2022-05-01_20h24.41.522,SelfAnchoring,2021.2.3,MacIntel,59.84082341,,,,,,,,,,,,,,,,,,,,,,,,,
,,,6,2.1727,0,58,58,34,1,Lenient,69,59058,2022-05-01_20h24.41.522,SelfAnchoring,2021.2.3,MacIntel,59.84082341,,,,,,,,,,,,,,,,,,,,,,,,,
,,,4,3.8178,0,59,59,49,1,Unafraid,132,59058,2022-05-01_20h24.41.522,SelfAnchoring,2021.2.3,MacIntel,59.84082341,,,,,,,,,,,,,,,,,,,,,,,,,
,,,5,4.0784,0,60,60,40,1,Realistic,106,59058,2022-05-01_20h24.41.522,SelfAnchoring,2021.2.3,MacIntel,59.84082341,,,,,,,,,,,,,,,,,,,,,,,,,
,,,6,2.9404,0,61,61,87,1,Respectable,109,59058,2022-05-01_20h24.41.522,SelfAnchoring,2021.2.3,MacIntel,59.84082341,,,,,,,,,,,,,,,,,,,,,,,,,
,,,5,3.8624,0,62,62,15,1,Knowledgeable,68,59058,2022-05-01_20h24.41.522,SelfAnchoring,2021.2.3,MacIntel,59.84082341,,,,,,,,,,,,,,,,,,,,,,,,,
,,,5,1.6175,0,63,63,25,1,Thoughtful,129,59058,2022-05-01_20h24.41.522,SelfAnchoring,2021.2.3,MacIntel,59.84082341,,,,,,,,,,,,,,,,,,,,,,,,,
,,,3,3.1881,0,64,64,3,1,Philosophical,93,59058,2022-05-01_20h24.41.522,SelfAnchoring,2021.2.3,MacIntel,59.84082341,,,,,,,,,,,,,,,,,,,,,,,,,
,,,3,1.6951,0,65,65,65,1,Thrifty,130,59058,2022-05-01_20h24.41.522,SelfAnchoring,2021.2.3,MacIntel,59.84082341,,,,,,,,,,,,,,,,,,,,,,,,,
,,,4,1.9879,0,66,66,11,1,Outgoing,86,59058,2022-05-01_20h24.41.522,SelfAnchoring,2021.2.3,MacIntel,59.84082341,,,,,,,,,,,,,,,,,,,,,,,,,
,,,1,1.6047,0,67,67,39,1,Mathematical,74,59058,2022-05-01_20h24.41.522,SelfAnchoring,2021.2.3,MacIntel,59.84082341,,,,,,,,,,,,,,,,,,,,,,,,,
,,,7,2.8649,0,68,68,47,1,Orderly,84,59058,2022-05-01_20h24.41.522,SelfAnchoring,2021.2.3,MacIntel,59.84082341,,,,,,,,,,,,,,,,,,,,,,,,,
,,,3,2.4733,0,69,69,59,1,Extraverted,39,59058,2022-05-01_20h24.41.522,SelfAnchoring,2021.2.3,MacIntel,59.84082341,,,,,,,,,,,,,,,,,,,,,,,,,
,,,4,2.5431,0,70,70,71,1,Benevolent,2,59058,2022-05-01_20h24.41.522,SelfAnchoring,2021.2.3,MacIntel,59.84082341,,,,,,,,,,,,,,,,,,,,,,,,,
,,,4,1.6357,0,71,71,85,1,Elegant,35,59058,2022-05-01_20h24.41.522,SelfAnchoring,2021.2.3,MacIntel,59.84082341,,,,,,,,,,,,,,,,,,,,,,,,,
,,,6,3.5957,0,72,72,80,1,Moral,77,59058,2022-05-01_20h24.41.522,SelfAnchoring,2021.2.3,MacIntel,59.84082341,,,,,,,,,,,,,,,,,,,,,,,,,
,,,5,2.2054,0,73,73,70,1,Clean-cut,9,59058,2022-05-01_20h24.41.522,SelfAnchoring,2021.2.3,MacIntel,59.84082341,,,,,,,,,,,,,,,,,,,,,,,,,
,,,6,2.2402,0,74,74,63,1,Neat,79,59058,2022-05-01_20h24.41.522,SelfAnchoring,2021.2.3,MacIntel,59.84082341,,,,,,,,,,,,,,,,,,,,,,,,,
,,,6,2.3047,0,75,75,23,1,Peaceful,89,59058,2022-05-01_20h24.41.522,SelfAnchoring,2021.2.3,MacIntel,59.84082341,,,,,,,,,,,,,,,,,,,,,,,,,
,,,6,1.7198,0,76,76,5,1,Giving,51,59058,2022-05-01_20h24.41.522,SelfAnchoring,2021.2.3,MacIntel,59.84082341,,,,,,,,,,,,,,,,,,,,,,,,,
,,,2,2.161,0,77,77,76,1,Confident,17,59058,2022-05-01_20h24.41.522,SelfAnchoring,2021.2.3,MacIntel,59.84082341,,,,,,,,,,,,,,,,,,,,,,,,,
,,,6,2.0225,0,78,78,86,1,Helpful,59,59058,2022-05-01_20h24.41.522,SelfAnchoring,2021.2.3,MacIntel,59.84082341,,,,,,,,,,,,,,,,,,,,,,,,,
,,,7,1.7717,0,79,79,84,1,Loyal,72,59058,2022-05-01_20h24.41.522,SelfAnchoring,2021.2.3,MacIntel,59.84082341,,,,,,,,,,,,,,,,,,,,,,,,,
,,,6,2.4931,0,80,80,9,1,Constructive,20,59058,2022-05-01_20h24.41.522,SelfAnchoring,2021.2.3,MacIntel,59.84082341,,,,,,,,,,,,,,,,,,,,,,,,,
,,,7,1.8882,0,81,81,46,1,Considerate,19,59058,2022-05-01_20h24.41.522,SelfAnchoring,2021.2.3,MacIntel,59.84082341,,,,,,,,,,,,,,,,,,,,,,,,,
,,,7,5.4346,0,82,82,42,1,Well-mannered,143,59058,2022-05-01_20h24.41.522,SelfAnchoring,2021.2.3,MacIntel,59.84082341,,,,,,,,,,,,,,,,,,,,,,,,,
,,,5,3.7265,0,83,83,24,1,Glad,52,59058,2022-05-01_20h24.41.522,SelfAnchoring,2021.2.3,MacIntel,59.84082341,,,,,,,,,,,,,,,,,,,,,,,,,
,,,6,1.5692,0,84,84,13,1,Practical,96,59058,2022-05-01_20h24.41.522,SelfAnchoring,2021.2.3,MacIntel,59.84082341,,,,,,,,,,,,,,,,,,,,,,,,,
,,,5,2.127,0,85,85,26,1,Dignified,31,59058,2022-05-01_20h24.41.522,SelfAnchoring,2021.2.3,MacIntel,59.84082341,,,,,,,,,,,,,,,,,,,,,,,,,
,,,5,3.2232,0,86,86,74,1,Fun,47,59058,2022-05-01_20h24.41.522,SelfAnchoring,2021.2.3,MacIntel,59.84082341,,,,,,,,,,,,,,,,,,,,,,,,,
,,,6,2.1102,0,87,87,66,1,Romantic,111,59058,2022-05-01_20h24.41.522,SelfAnchoring,2021.2.3,MacIntel,59.84082341,,,,,,,,,,,,,,,,,,,,,,,,,
,,,4,2.8036,0,88,88,51,1,Sociable,121,59058,2022-05-01_20h24.41.522,SelfAnchoring,2021.2.3,MacIntel,59.84082341,,,,,,,,,,,,,,,,,,,,,,,,,
,,,4,1.7402,0,89,89,22,1,Experienced,38,59058,2022-05-01_20h24.41.522,SelfAnchoring,2021.2.3,MacIntel,59.84082341,,,,,,,,,,,,,,,,,,,,,,,,,
,,,7,4.0918,0,90,90,28,1,Self-critical,114,59058,2022-05-01_20h24.41.522,SelfAnchoring,2021.2.3,MacIntel,59.84082341,,,,,,,,,,,,,,,,,,,,,,,,,
,,,,,,,,,,,,59058,2022-05-01_20h24.41.522,SelfAnchoring,2021.2.3,MacIntel,59.84082341,space,1.9166,87,,0,0,0,8,1,plot9.jpg,,,,,,,,,,,,,,,
,,,,,,,,,,,,59058,2022-05-01_20h24.41.522,SelfAnchoring,2021.2.3,MacIntel,59.84082341,,,21,,0,1,1,9,1,plot10.jpg,,,,,,,,,,,,,,,
,,,,,,,,,,,,59058,2022-05-01_20h24.41.522,SelfAnchoring,2021.2.3,MacIntel,59.84082341,,,94,,0,2,2,0,1,plot1.jpg,,,,,,,,,,,,,,,
,,,,,,,,,,,,59058,2022-05-01_20h24.41.522,SelfAnchoring,2021.2.3,MacIntel,59.84082341,,,89,,0,3,3,6,1,plot7.jpg,,,,,,,,,,,,,,,
,,,,,,,,,,,,59058,2022-05-01_20h24.41.522,SelfAnchoring,2021.2.3,MacIntel,59.84082341,,,89,,0,4,4,7,1,plot8.jpg,,,,,,,,,,,,,,,
,,,,,,,,,,,,59058,2022-05-01_20h24.41.522,SelfAnchoring,2021.2.3,MacIntel,59.84082341,,,79,,0,5,5,4,1,plot5.jpg,,,,,,,,,,,,,,,
,,,,,,,,,,,,59058,2022-05-01_20h24.41.522,SelfAnchoring,2021.2.3,MacIntel,59.84082341,,,23,,0,6,6,1,1,plot2.jpg,,,,,,,,,,,,,,,
,,,,,,,,,,,,59058,2022-05-01_20h24.41.522,SelfAnchoring,2021.2.3,MacIntel,59.84082341,,,19,,0,7,7,5,1,plot6.jpg,,,,,,,,,,,,,,,
,,,,,,,,,,,,59058,2022-05-01_20h24.41.522,SelfAnchoring,2021.2.3,MacIntel,59.84082341,,,34,,0,8,8,2,1,plot3.jpg,,,,,,,,,,,,,,,
,,,,,,,,,,,,59058,2022-05-01_20h24.41.522,SelfAnchoring,2021.2.3,MacIntel,59.84082341,,,87,,0,9,9,3,1,plot4.jpg,,,,,,,,,,,,,,,
,,,,,,,,,,Good,53,59058,2022-05-01_20h24.41.522,SelfAnchoring,2021.2.3,MacIntel,59.84082341,,,,,,,,,,,I am a Overestimator,space,19.5482,left,32.7969,Good,Overestimator,Underestimator,Overestimator,2,0,0,0,52,1
,,,,,,,,,,Extraverted,39,59058,2022-05-01_20h24.41.522,SelfAnchoring,2021.2.3,MacIntel,59.84082341,,,,,,,,,,,,,,left,7.0997,Extraverted,Overestimator,Underestimator,Overestimator,2,0,1,1,38,1
,,,,,,,,,,Skillful,119,59058,2022-05-01_20h24.41.522,SelfAnchoring,2021.2.3,MacIntel,59.84082341,,,,,,,,,,,,,,right,1.4497,Skillful,Overestimator,Underestimator,Underestimator,1,0,2,2,118,1
,,,,,,,,,,Quick-witted,103,59058,2022-05-01_20h24.41.522,SelfAnchoring,2021.2.3,MacIntel,59.84082341,,,,,,,,,,,,,,right,1.6388,Quick-witted,Overestimator,Underestimator,Underestimator,1,0,3,3,102,1
,,,,,,,,,,Inventive,67,59058,2022-05-01_20h24.41.522,SelfAnchoring,2021.2.3,MacIntel,59.84082341,,,,,,,,,,,,,,left,1.2658,Inventive,Overestimator,Underestimator,Overestimator,2,0,4,4,66,1
,,,,,,,,,,Gentle,50,59058,2022-05-01_20h24.41.522,SelfAnchoring,2021.2.3,MacIntel,59.84082341,,,,,,,,,,,,,,right,1.1035,Gentle,Overestimator,Underestimator,Underestimator,1,0,5,5,49,1
,,,,,,,,,,Dedicated,25,59058,2022-05-01_20h24.41.522,SelfAnchoring,2021.2.3,MacIntel,59.84082341,,,,,,,,,,,,,,left,1.578,Dedicated,Overestimator,Underestimator,Overestimator,2,0,6,6,24,1
,,,,,,,,,,Realistic,106,59058,2022-05-01_20h24.41.522,SelfAnchoring,2021.2.3,MacIntel,59.84082341,,,,,,,,,,,,,,right,2.5723,Realistic,Overestimator,Underestimator,Underestimator,1,0,7,7,105,1
,,,,,,,,,,Unprejudiced,136,59058,2022-05-01_20h24.41.522,SelfAnchoring,2021.2.3,MacIntel,59.84082341,,,,,,,,,,,,,,right,1.8541,Unprejudiced,Overestimator,Underestimator,Underestimator,1,0,8,8,135,1
,,,,,,,,,,Fun,47,59058,2022-05-01_20h24.41.522,SelfAnchoring,2021.2.3,MacIntel,59.84082341,,,,,,,,,,,,,,left,1.1714,Fun,Overestimator,Underestimator,Overestimator,2,0,9,9,46,1
,,,,,,,,,,Versatile,141,59058,2022-05-01_20h24.41.522,SelfAnchoring,2021.2.3,MacIntel,59.84082341,,,,,,,,,,,,,,left,1.8382,Versatile,Overestimator,Underestimator,Overestimator,2,0,10,10,140,1
,,,,,,,,,,Prudent,100,59058,2022-05-01_20h24.41.522,SelfAnchoring,2021.2.3,MacIntel,59.84082341,,,,,,,,,,,,,,right,3.976,Prudent,Overestimator,Underestimator,Underestimator,1,0,11,11,99,1
,,,,,,,,,,Dignified,31,59058,2022-05-01_20h24.41.522,SelfAnchoring,2021.2.3,MacIntel,59.84082341,,,,,,,,,,,,,,right,1.8337,Dignified,Overestimator,Underestimator,Underestimator,1,0,12,12,30,1
,,,,,,,,,,Democratic,29,59058,2022-05-01_20h24.41.522,SelfAnchoring,2021.2.3,MacIntel,59.84082341,,,,,,,,,,,,,,space,6.696,Democratic,Overestimator,Underestimator,-99,-99,0,13,13,28,1
,,,,,,,,,,Charming,7,59058,2022-05-01_20h24.41.522,SelfAnchoring,2021.2.3,MacIntel,59.84082341,,,,,,,,,,,,,,left,4.9942,Charming,Overestimator,Underestimator,Overestimator,2,0,14,14,6,1
,,,,,,,,,,Foresighted,44,59058,2022-05-01_20h24.41.522,SelfAnchoring,2021.2.3,MacIntel,59.84082341,,,,,,,,,,,,,,right,1.1519,Foresighted,Overestimator,Underestimator,Underestimator,1,0,15,15,43,1
,,,,,,,,,,Economical,34,59058,2022-05-01_20h24.41.522,SelfAnchoring,2021.2.3,MacIntel,59.84082341,,,,,,,,,,,,,,right,1.4346,Economical,Overestimator,Underestimator,Underestimator,1,0,16,16,33,1
,,,,,,,,,,Unpretentious,137,59058,2022-05-01_20h24.41.522,SelfAnchoring,2021.2.3,MacIntel,59.84082341,,,,,,,,,,,,,,right,5.111,Unpretentious,Overestimator,Underestimator,Underestimator,1,0,17,17,136,1
,,,,,,,,,,Self-controlled,113,59058,2022-05-01_20h24.41.522,SelfAnchoring,2021.2.3,MacIntel,59.84082341,,,,,,,,,,,,,,right,1.486,Self-controlled,Overestimator,Underestimator,Underestimator,1,0,18,18,112,1
,,,,,,,,,,Respectable,109,59058,2022-05-01_20h24.41.522,SelfAnchoring,2021.2.3,MacIntel,59.84082341,,,,,,,,,,,,,,right,2.9602,Respectable,Overestimator,Underestimator,Underestimator,1,0,19,19,108,1
,,,,,,,,,,Wise,147,59058,2022-05-01_20h24.41.522,SelfAnchoring,2021.2.3,MacIntel,59.84082341,,,,,,,,,,,,,,left,3.5134,Wise,Overestimator,Underestimator,Overestimator,2,0,20,20,146,1
,,,,,,,,,,Generous,49,59058,2022-05-01_20h24.41.522,SelfAnchoring,2021.2.3,MacIntel,59.84082341,,,,,,,,,,,,,,left,0.8496,Generous,Overestimator,Underestimator,Overestimator,2,0,21,21,48,1
,,,,,,,,,,Well-organized,144,59058,2022-05-01_20h24.41.522,SelfAnchoring,2021.2.3,MacIntel,59.84082341,,,,,,,,,,,,,,right,1.27,Well-organized,Overestimator,Underestimator,Underestimator,1,0,22,22,143,1
,,,,,,,,,,Communicative,13,59058,2022-05-01_20h24.41.522,SelfAnchoring,2021.2.3,MacIntel,59.84082341,,,,,,,,,,,,,,left,5.0277,Communicative,Overestimator,Underestimator,Overestimator,2,0,23,23,12,1
,,,,,,,,,,Contemplative,21,59058,2022-05-01_20h24.41.522,SelfAnchoring,2021.2.3,MacIntel,59.84082341,,,,,,,,,,,,,,left,0.9514,Contemplative,Overestimator,Underestimator,Overestimator,2,0,24,24,20,1
,,,,,,,,,,Practical,96,59058,2022-05-01_20h24.41.522,SelfAnchoring,2021.2.3,MacIntel,59.84082341,,,,,,,,,,,,,,right,1.2549,Practical,Overestimator,Underestimator,Underestimator,1,0,25,25,95,1
,,,,,,,,,,Stable,123,59058,2022-05-01_20h24.41.522,SelfAnchoring,2021.2.3,MacIntel,59.84082341,,,,,,,,,,,,,,right,0.8881,Stable,Overestimator,Underestimator,Underestimator,1,0,26,26,122,1
,,,,,,,,,,Compassionate,14,59058,2022-05-01_20h24.41.522,SelfAnchoring,2021.2.3,MacIntel,59.84082341,,,,,,,,,,,,,,left,2.7414,Compassionate,Overestimator,Underestimator,Overestimator,2,0,27,27,13,1
,,,,,,,,,,Mature,75,59058,2022-05-01_20h24.41.522,SelfAnchoring,2021.2.3,MacIntel,59.84082341,,,,,,,,,,,,,,right,2.861,Mature,Overestimator,Underestimator,Underestimator,1,0,28,28,74,1
,,,,,,,,,,Subtle,127,59058,2022-05-01_20h24.41.522,SelfAnchoring,2021.2.3,MacIntel,59.84082341,,,,,,,,,,,,,,right,1.1178,Subtle,Overestimator,Underestimator,Underestimator,1,0,29,29,126,1
,,,,,,,,,,Smart,120,59058,2022-05-01_20h24.41.522,SelfAnchoring,2021.2.3,MacIntel,59.84082341,,,,,,,,,,,,,,right,2.5035,Smart,Overestimator,Underestimator,Underestimator,1,0,30,30,119,1
,,,,,,,,,,Unafraid,132,59058,2022-05-01_20h24.41.522,SelfAnchoring,2021.2.3,MacIntel,59.84082341,,,,,,,,,,,,,,left,4.8425,Unafraid,Overestimator,Underestimator,Overestimator,2,0,31,31,131,1
,,,,,,,,,,Good-tempered,56,59058,2022-05-01_20h24.41.522,SelfAnchoring,2021.2.3,MacIntel,59.84082341,,,,,,,,,,,,,,right,1.5188,Good-tempered,Overestimator,Underestimator,Underestimator,1,0,32,32,55,1
,,,,,,,,,,Precise,97,59058,2022-05-01_20h24.41.522,SelfAnchoring,2021.2.3,MacIntel,59.84082341,,,,,,,,,,,,,,right,1.0013,Precise,Overestimator,Underestimator,Underestimator,1,0,33,33,96,1
,,,,,,,,,,Persistent,92,59058,2022-05-01_20h24.41.522,SelfAnchoring,2021.2.3,MacIntel,59.84082341,,,,,,,,,,,,,,left,4.5302,Persistent,Overestimator,Underestimator,Overestimator,2,0,34,34,91,1
,,,,,,,,,,Good-humored,54,59058,2022-05-01_20h24.41.522,SelfAnchoring,2021.2.3,MacIntel,59.84082341,,,,,,,,,,,,,,left,1.1872,Good-humored,Overestimator,Underestimator,Overestimator,2,0,35,35,53,1
,,,,,,,,,,Capable,4,59058,2022-05-01_20h24.41.522,SelfAnchoring,2021.2.3,MacIntel,59.84082341,,,,,,,,,,,,,,left,0.8361,Capable,Overestimator,Underestimator,Overestimator,2,0,36,36,3,1
,,,,,,,,,,Talkative,128,59058,2022-05-01_20h24.41.522,SelfAnchoring,2021.2.3,MacIntel,59.84082341,,,,,,,,,,,,,,right,4.5968,Talkative,Overestimator,Underestimator,Underestimator,1,0,37,37,127,1
,,,,,,,,,,Self-critical,114,59058,2022-05-01_20h24.41.522,SelfAnchoring,2021.2.3,MacIntel,59.84082341,,,,,,,,,,,,,,right,2.2715,Self-critical,Overestimator,Underestimator,Underestimator,1,0,38,38,113,1
,,,,,,,,,,Fair,40,59058,2022-05-01_20h24.41.522,SelfAnchoring,2021.2.3,MacIntel,59.84082341,,,,,,,,,,,,,,left,1.2537,Fair,Overestimator,Underestimator,Overestimator,2,0,39,39,39,1
,,,,,,,,,,Confident,17,59058,2022-05-01_20h24.41.522,SelfAnchoring,2021.2.3,MacIntel,59.84082341,,,,,,,,,,,,,,left,1.1423,Confident,Overestimator,Underestimator,Overestimator,2,0,40,40,16,1
,,,,,,,,,,Polished,94,59058,2022-05-01_20h24.41.522,SelfAnchoring,2021.2.3,MacIntel,59.84082341,,,,,,,,,,,,,,left,3.5056,Polished,Overestimator,Underestimator,Overestimator,2,0,41,41,93,1
,,,,,,,,,,Thrifty,130,59058,2022-05-01_20h24.41.522,SelfAnchoring,2021.2.3,MacIntel,59.84082341,,,,,,,,,,,,,,left,0.8507,Thrifty,Overestimator,Underestimator,Overestimator,2,0,42,42,129,1
,,,,,,,,,,Clean-cut,9,59058,2022-05-01_20h24.41.522,SelfAnchoring,2021.2.3,MacIntel,59.84082341,,,,,,,,,,,,,,right,1.31,Clean-cut,Overestimator,Underestimator,Underestimator,1,0,43,43,8,1
,,,,,,,,,,Understanding,134,59058,2022-05-01_20h24.41.522,SelfAnchoring,2021.2.3,MacIntel,59.84082341,,,,,,,,,,,,,,left,4.5986,Understanding,Overestimator,Underestimator,Overestimator,2,0,44,44,133,1
,,,,,,,,,,Accurate,1,59058,2022-05-01_20h24.41.522,SelfAnchoring,2021.2.3,MacIntel,59.84082341,,,,,,,,,,,,,,left,1.2033,Accurate,Overestimator,Underestimator,Overestimator,2,0,45,45,0,1
,,,,,,,,,,Moral,77,59058,2022-05-01_20h24.41.522,SelfAnchoring,2021.2.3,MacIntel,59.84082341,,,,,,,,,,,,,,right,3.9901,Moral,Overestimator,Underestimator,Underestimator,1,0,46,46,76,1
,,,,,,,,,,Conscientious,18,59058,2022-05-01_20h24.41.522,SelfAnchoring,2021.2.3,MacIntel,59.84082341,,,,,,,,,,,,,,left,3.3632,Conscientious,Overestimator,Underestimator,Overestimator,2,0,47,47,17,1
,,,,,,,,,,Respectful,110,59058,2022-05-01_20h24.41.522,SelfAnchoring,2021.2.3,MacIntel,59.84082341,,,,,,,,,,,,,,left,3.4601,Respectful,Overestimator,Underestimator,Overestimator,2,0,48,48,109,1
,,,,,,,,,,Experienced,38,59058,2022-05-01_20h24.41.522,SelfAnchoring,2021.2.3,MacIntel,59.84082341,,,,,,,,,,,,,,right,37.8537,Experienced,Overestimator,Underestimator,Underestimator,1,0,49,49,37,1
,,,,,,,,,,Sensitive,116,59058,2022-05-01_20h24.41.522,SelfAnchoring,2021.2.3,MacIntel,59.84082341,,,,,,,,,,,,,,right,1.5232,Sensitive,Overestimator,Underestimator,Underestimator,1,0,50,50,115,1
,,,,,,,,,,Refined,107,59058,2022-05-01_20h24.41.522,SelfAnchoring,2021.2.3,MacIntel,59.84082341,,,,,,,,,,,,,,right,1.5003,Refined,Overestimator,Underestimator,Underestimator,1,0,51,51,106,1
,,,,,,,,,,Considerate,19,59058,2022-05-01_20h24.41.522,SelfAnchoring,2021.2.3,MacIntel,59.84082341,,,,,,,,,,,,,,left,1.3009,Considerate,Overestimator,Underestimator,Overestimator,2,0,52,52,18,1
,,,,,,,,,,Warm,142,59058,2022-05-01_20h24.41.522,SelfAnchoring,2021.2.3,MacIntel,59.84082341,,,,,,,,,,,,,,left,1.0389,Warm,Overestimator,Underestimator,Overestimator,2,0,53,53,141,1
,,,,,,,,,,Inquisitive,66,59058,2022-05-01_20h24.41.522,SelfAnchoring,2021.2.3,MacIntel,59.84082341,,,,,,,,,,,,,,left,3.0383,Inquisitive,Overestimator,Underestimator,Overestimator,2,0,54,54,65,1
,,,,,,,,,,Cooperative,22,59058,2022-05-01_20h24.41.522,SelfAnchoring,2021.2.3,MacIntel,59.84082341,,,,,,,,,,,,,,left,0.9351,Cooperative,Overestimator,Underestimator,Overestimator,2,0,55,55,21,1
,,,,,,,,,,Perfectionistic,90,59058,2022-05-01_20h24.41.522,SelfAnchoring,2021.2.3,MacIntel,59.84082341,,,,,,,,,,,,,,right,1.2225,Perfectionistic,Overestimator,Underestimator,Underestimator,1,0,56,56,89,1
,,,,,,,,,,Passionate,88,59058,2022-05-01_20h24.41.522,SelfAnchoring,2021.2.3,MacIntel,59.84082341,,,,,,,,,,,,,,left,1.082,Passionate,Overestimator,Underestimator,Overestimator,2,0,57,57,87,1
,,,,,,,,,,Positive,95,59058,2022-05-01_20h24.41.522,SelfAnchoring,2021.2.3,MacIntel,59.84082341,,,,,,,,,,,,,,left,0.8579,Positive,Overestimator,Underestimator,Overestimator,2,0,58,58,94,1
,,,,,,,,,,Outgoing,86,59058,2022-05-01_20h24.41.522,SelfAnchoring,2021.2.3,MacIntel,59.84082341,,,,,,,,,,,,,,left,0.9074,Outgoing,Overestimator,Underestimator,Overestimator,2,0,59,59,85,1
,,,,,,,,,,Faithful,41,59058,2022-05-01_20h24.41.522,SelfAnchoring,2021.2.3,MacIntel,59.84082341,,,,,,,,,,,,,,left,1.1865,Faithful,Overestimator,Underestimator,Overestimator,2,0,60,60,40,1
,,,,,,,,,,Nice,80,59058,2022-05-01_20h24.41.522,SelfAnchoring,2021.2.3,MacIntel,59.84082341,,,,,,,,,,,,,,left,0.8217,Nice,Overestimator,Underestimator,Overestimator,2,0,61,61,79,1
,,,,,,,,,,Original,85,59058,2022-05-01_20h24.41.522,SelfAnchoring,2021.2.3,MacIntel,59.84082341,,,,,,,,,,,,,,right,2.2039,Original,Overestimator,Underestimator,Underestimator,1,0,62,62,84,1
,,,,,,,,,,Funny,48,59058,2022-05-01_20h24.41.522,SelfAnchoring,2021.2.3,MacIntel,59.84082341,,,,,,,,,,,,,,left,1.4887,Funny,Overestimator,Underestimator,Overestimator,2,0,63,63,47,1
,,,,,,,,,,Witty,148,59058,2022-05-01_20h24.41.522,SelfAnchoring,2021.2.3,MacIntel,59.84082341,,,,,,,,,,,,,,left,1.8522,Witty,Overestimator,Underestimator,Overestimator,2,0,64,64,147,1
,,,,,,,,,,Verbal,140,59058,2022-05-01_20h24.41.522,SelfAnchoring,2021.2.3,MacIntel,59.84082341,,,,,,,,,,,,,,left,0.8999,Verbal,Overestimator,Underestimator,Overestimator,2,0,65,65,139,1
,,,,,,,,,,Composed,15,59058,2022-05-01_20h24.41.522,SelfAnchoring,2021.2.3,MacIntel,59.84082341,,,,,,,,,,,,,,right,1.2364,Composed,Overestimator,Underestimator,Underestimator,1,0,66,66,14,1
,,,,,,,,,,Fearless,42,59058,2022-05-01_20h24.41.522,SelfAnchoring,2021.2.3,MacIntel,59.84082341,,,,,,,,,,,,,,left,1.9217,Fearless,Overestimator,Underestimator,Overestimator,2,0,67,67,41,1
,,,,,,,,,,Reserved,108,59058,2022-05-01_20h24.41.522,SelfAnchoring,2021.2.3,MacIntel,59.84082341,,,,,,,,,,,,,,right,1.02,Reserved,Overestimator,Underestimator,Underestimator,1,0,68,68,107,1
,,,,,,,,,,Unenvious,135,59058,2022-05-01_20h24.41.522,SelfAnchoring,2021.2.3,MacIntel,59.84082341,,,,,,,,,,,,,,right,1.6529,Unenvious,Overestimator,Underestimator,Underestimator,1,0,69,69,134,1
,,,,,,,,,,Steady,124,59058,2022-05-01_20h24.41.522,SelfAnchoring,2021.2.3,MacIntel,59.84082341,,,,,,,,,,,,,,right,1.7056,Steady,Overestimator,Underestimator,Underestimator,1,0,70,70,123,1
,,,,,,,,,,Sophisticated,122,59058,2022-05-01_20h24.41.522,SelfAnchoring,2021.2.3,MacIntel,59.84082341,,,,,,,,,,,,,,right,2.6209,Sophisticated,Overestimator,Underestimator,Underestimator,1,0,71,71,121,1
,,,,,,,,,,Innocent,65,59058,2022-05-01_20h24.41.522,SelfAnchoring,2021.2.3,MacIntel,59.84082341,,,,,,,,,,,,,,right,1.3019,Innocent,Overestimator,Underestimator,Underestimator,1,0,72,72,64,1
,,,,,,,,,,Eager,33,59058,2022-05-01_20h24.41.522,SelfAnchoring,2021.2.3,MacIntel,59.84082341,,,,,,,,,,,,,,left,1.2858,Eager,Overestimator,Underestimator,Overestimator,2,0,73,73,32,1
,,,,,,,,,,Charitable,6,59058,2022-05-01_20h24.41.522,SelfAnchoring,2021.2.3,MacIntel,59.84082341,,,,,,,,,,,,,,right,2.0224,Charitable,Overestimator,Underestimator,Underestimator,1,0,74,74,5,1
,,,,,,,,,,Outspoken,87,59058,2022-05-01_20h24.41.522,SelfAnchoring,2021.2.3,MacIntel,59.84082341,,,,,,,,,,,,,,left,2.211,Outspoken,Overestimator,Underestimator,Overestimator,2,0,75,75,86,1
,,,,,,,,,,Thoughtful,129,59058,2022-05-01_20h24.41.522,SelfAnchoring,2021.2.3,MacIntel,59.84082341,,,,,,,,,,,,,,left,1.5397,Thoughtful,Overestimator,Underestimator,Overestimator,2,0,76,76,128,1
,,,,,,,,,,Dependable,30,59058,2022-05-01_20h24.41.522,SelfAnchoring,2021.2.3,MacIntel,59.84082341,,,,,,,,,,,,,,left,1.6355,Dependable,Overestimator,Underestimator,Overestimator,2,0,77,77,29,1
,,,,,,,,,,Clever,11,59058,2022-05-01_20h24.41.522,SelfAnchoring,2021.2.3,MacIntel,59.84082341,,,,,,,,,,,,,,left,0.9013,Clever,Overestimator,Underestimator,Overestimator,2,0,78,78,10,1
,,,,,,,,,,Giving,51,59058,2022-05-01_20h24.41.522,SelfAnchoring,2021.2.3,MacIntel,59.84082341,,,,,,,,,,,,,,left,1.2017,Giving,Overestimator,Underestimator,Overestimator,2,0,79,79,50,1
,,,,,,,,,,Studious,126,59058,2022-05-01_20h24.41.522,SelfAnchoring,2021.2.3,MacIntel,59.84082341,,,,,,,,,,,,,,right,1.2323,Studious,Overestimator,Underestimator,Underestimator,1,0,80,80,125,1
,,,,,,,,,,Punctual,101,59058,2022-05-01_20h24.41.522,SelfAnchoring,2021.2.3,MacIntel,59.84082341,,,,,,,,,,,,,,right,1.4335,Punctual,Overestimator,Underestimator,Underestimator,1,0,81,81,100,1
,,,,,,,,,,Rational,105,59058,2022-05-01_20h24.41.522,SelfAnchoring,2021.2.3,MacIntel,59.84082341,,,,,,,,,,,,,,right,1.1346,Rational,Overestimator,Underestimator,Underestimator,1,0,82,82,104,1
,,,,,,,,,,Sociable,121,59058,2022-05-01_20h24.41.522,SelfAnchoring,2021.2.3,MacIntel,59.84082341,,,,,,,,,,,,,,left,0.9343,Sociable,Overestimator,Underestimator,Overestimator,2,0,83,83,120,1
,,,,,,,,,,Scientific,112,59058,2022-05-01_20h24.41.522,SelfAnchoring,2021.2.3,MacIntel,59.84082341,,,,,,,,,,,,,,right,2.3802,Scientific,Overestimator,Underestimator,Underestimator,1,0,84,84,111,1
,,,,,,,,,,Enthusiastic,36,59058,2022-05-01_20h24.41.522,SelfAnchoring,2021.2.3,MacIntel,59.84082341,,,,,,,,,,,,,,left,1.4574,Enthusiastic,Overestimator,Underestimator,Overestimator,2,0,85,85,35,1
,,,,,,,,,,Level-headed,70,59058,2022-05-01_20h24.41.522,SelfAnchoring,2021.2.3,MacIntel,59.84082341,,,,,,,,,,,,,,right,1.0068,Level-headed,Overestimator,Underestimator,Underestimator,1,0,86,86,69,1
,,,,,,,,,,Humorous,63,59058,2022-05-01_20h24.41.522,SelfAnchoring,2021.2.3,MacIntel,59.84082341,,,,,,,,,,,,,,left,1.8529,Humorous,Overestimator,Underestimator,Overestimator,2,0,87,87,62,1
,,,,,,,,,,Delicate,28,59058,2022-05-01_20h24.41.522,SelfAnchoring,2021.2.3,MacIntel,59.84082341,,,,,,,,,,,,,,left,2.1051,Delicate,Overestimator,Underestimator,Overestimator,2,0,88,88,27,1
,,,,,,,,,,Glad,52,59058,2022-05-01_20h24.41.522,SelfAnchoring,2021.2.3,MacIntel,59.84082341,,,,,,,,,,,,,,right,5.8133,Glad,Overestimator,Underestimator,Underestimator,1,0,89,89,51,1
,,,,,,,,,,Clean,8,59058,2022-05-01_20h24.41.522,SelfAnchoring,2021.2.3,MacIntel,59.84082341,,,,,,,,,,,,,,right,0.9899,Clean,Overestimator,Underestimator,Underestimator,1,0,90,90,7,1
,,,,,,,,,,Peaceful,89,59058,2022-05-01_20h24.41.522,SelfAnchoring,2021.2.3,MacIntel,59.84082341,,,,,,,,,,,,,,right,0.6882,Peaceful,Overestimator,Underestimator,Underestimator,1,0,91,91,88,1
,,,,,,,,,,Courageous,24,59058,2022-05-01_20h24.41.522,SelfAnchoring,2021.2.3,MacIntel,59.84082341,,,,,,,,,,,,,,left,2.0916,Courageous,Overestimator,Underestimator,Overestimator,2,0,92,92,23,1
,,,,,,,,,,Humble,62,59058,2022-05-01_20h24.41.522,SelfAnchoring,2021.2.3,MacIntel,59.84082341,,,,,,,,,,,,,,left,1.6744,Humble,Overestimator,Underestimator,Overestimator,2,0,93,93,61,1
,,,,,,,,,,Unselfish,138,59058,2022-05-01_20h24.41.522,SelfAnchoring,2021.2.3,MacIntel,59.84082341,,,,,,,,,,,,,,left,1.3518,Unselfish,Overestimator,Underestimator,Overestimator,2,0,94,94,137,1
,,,,,,,,,,Graceful,57,59058,2022-05-01_20h24.41.522,SelfAnchoring,2021.2.3,MacIntel,59.84082341,,,,,,,,,,,,,,right,6.9015,Graceful,Overestimator,Underestimator,Underestimator,1,0,95,95,56,1
,,,,,,,,,,Casual,5,59058,2022-05-01_20h24.41.522,SelfAnchoring,2021.2.3,MacIntel,59.84082341,,,,,,,,,,,,,,right,0.9066,Casual,Overestimator,Underestimator,Underestimator,1,0,96,96,4,1
,,,,,,,,,,Friendly,46,59058,2022-05-01_20h24.41.522,SelfAnchoring,2021.2.3,MacIntel,59.84082341,,,,,,,,,,,,,,left,1.3245,Friendly,Overestimator,Underestimator,Overestimator,2,0,97,97,45,1
,,,,,,,,,,Quiet,104,59058,2022-05-01_20h24.41.522,SelfAnchoring,2021.2.3,MacIntel,59.84082341,,,,,,,,,,,,,,right,1.721,Quiet,Overestimator,Underestimator,Underestimator,1,0,98,98,103,1
,,,,,,,,,,Clear-headed,10,59058,2022-05-01_20h24.41.522,SelfAnchoring,2021.2.3,MacIntel,59.84082341,,,,,,,,,,,,,,right,7.1022,Clear-headed,Overestimator,Underestimator,Underestimator,1,0,99,99,9,1
,,,,,,,,,,Cordial,23,59058,2022-05-01_20h24.41.522,SelfAnchoring,2021.2.3,MacIntel,59.84082341,,,,,,,,,,,,,,right,1.6524,Cordial,Overestimator,Underestimator,Underestimator,1,0,100,100,22,1
,,,,,,,,,,Open-minded,82,59058,2022-05-01_20h24.41.522,SelfAnchoring,2021.2.3,MacIntel,59.84082341,,,,,,,,,,,,,,left,1.0724,Open-minded,Overestimator,Underestimator,Overestimator,2,0,101,101,81,1
,,,,,,,,,,Optimistic,83,59058,2022-05-01_20h24.41.522,SelfAnchoring,2021.2.3,MacIntel,59.84082341,,,,,,,,,,,,,,left,2.9606,Optimistic,Overestimator,Underestimator,Overestimator,2,0,102,102,82,1
,,,,,,,,,,Deep,26,59058,2022-05-01_20h24.41.522,SelfAnchoring,2021.2.3,MacIntel,59.84082341,,,,,,,,,,,,,,left,1.8743,Deep,Overestimator,Underestimator,Overestimator,2,0,103,103,25,1
,,,,,,,,,,Benevolent,2,59058,2022-05-01_20h24.41.522,SelfAnchoring,2021.2.3,MacIntel,59.84082341,,,,,,,,,,,,,,left,1.7704,Benevolent,Overestimator,Underestimator,Overestimator,2,0,104,104,1,1
,,,,,,,,,,Purposeful,102,59058,2022-05-01_20h24.41.522,SelfAnchoring,2021.2.3,MacIntel,59.84082341,,,,,,,,,,,,,,right,1.1352,Purposeful,Overestimator,Underestimator,Underestimator,1,0,105,105,101,1
,,,,,,,,,,Hospitable,61,59058,2022-05-01_20h24.41.522,SelfAnchoring,2021.2.3,MacIntel,59.84082341,,,,,,,,,,,,,,right,2.0548,Hospitable,Overestimator,Underestimator,Underestimator,1,0,106,106,60,1
,,,,,,,,,,Orderly,84,59058,2022-05-01_20h24.41.522,SelfAnchoring,2021.2.3,MacIntel,59.84082341,,,,,,,,,,,,,,right,0.9178,Orderly,Overestimator,Underestimator,Underestimator,1,0,107,107,83,1
,,,,,,,,,,Lively,71,59058,2022-05-01_20h24.41.522,SelfAnchoring,2021.2.3,MacIntel,59.84082341,,,,,,,,,,,,,,left,3.744,Lively,Overestimator,Underestimator,Overestimator,2,0,108,108,70,1
,,,,,,,,,,Straightforward,125,59058,2022-05-01_20h24.41.522,SelfAnchoring,2021.2.3,MacIntel,59.84082341,,,,,,,,,,,,,,right,1.093,Straightforward,Overestimator,Underestimator,Underestimator,1,0,109,109,124,1
,,,,,,,,,,Persevering,91,59058,2022-05-01_20h24.41.522,SelfAnchoring,2021.2.3,MacIntel,59.84082341,,,,,,,,,,,,,,left,1.6091,Persevering,Overestimator,Underestimator,Overestimator,2,0,110,110,90,1
,,,,,,,,,,Disciplined,32,59058,2022-05-01_20h24.41.522,SelfAnchoring,2021.2.3,MacIntel,59.84082341,,,,,,,,,,,,,,right,1.3513,Disciplined,Overestimator,Underestimator,Underestimator,1,0,111,111,31,1
,,,,,,,,,,Mathematical,74,59058,2022-05-01_20h24.41.522,SelfAnchoring,2021.2.3,MacIntel,59.84082341,,,,,,,,,,,,,,right,1.1688,Mathematical,Overestimator,Underestimator,Underestimator,1,0,112,112,73,1
,,,,,,,,,,Deliberate,27,59058,2022-05-01_20h24.41.522,SelfAnchoring,2021.2.3,MacIntel,59.84082341,,,,,,,,,,,,,,left,3.2046,Deliberate,Overestimator,Underestimator,Overestimator,2,0,113,113,26,1
,,,,,,,,,,Prideful,98,59058,2022-05-01_20h24.41.522,SelfAnchoring,2021.2.3,MacIntel,59.84082341,,,,,,,,,,,,,,left,1.2671,Prideful,Overestimator,Underestimator,Overestimator,2,0,114,114,97,1
,,,,,,,,,,Healthy,58,59058,2022-05-01_20h24.41.522,SelfAnchoring,2021.2.3,MacIntel,59.84082341,,,,,,,,,,,,,,right,0.987,Healthy,Overestimator,Underestimator,Underestimator,1,0,115,115,57,1
,,,,,,,,,,Concise,16,59058,2022-05-01_20h24.41.522,SelfAnchoring,2021.2.3,MacIntel,59.84082341,,,,,,,,,,,,,,right,1.0852,Concise,Overestimator,Underestimator,Underestimator,1,0,116,116,15,1
,,,,,,,,,,Well-mannered,143,59058,2022-05-01_20h24.41.522,SelfAnchoring,2021.2.3,MacIntel,59.84082341,,,,,,,,,,,,,,left,1.4557,Well-mannered,Overestimator,Underestimator,Overestimator,2,0,117,117,142,1
,,,,,,,,,,Flexible,43,59058,2022-05-01_20h24.41.522,SelfAnchoring,2021.2.3,MacIntel,59.84082341,,,,,,,,,,,,,,left,1.004,Flexible,Overestimator,Underestimator,Overestimator,2,0,118,118,42,1
,,,,,,,,,,Modern,76,59058,2022-05-01_20h24.41.522,SelfAnchoring,2021.2.3,MacIntel,59.84082341,,,,,,,,,,,,,,right,2.4936,Modern,Overestimator,Underestimator,Underestimator,1,0,119,119,75,1
,,,,,,,,,,Elegant,35,59058,2022-05-01_20h24.41.522,SelfAnchoring,2021.2.3,MacIntel,59.84082341,,,,,,,,,,,,,,right,0.8211,Elegant,Overestimator,Underestimator,Underestimator,1,0,120,120,34,1
,,,,,,,,,,Neat,79,59058,2022-05-01_20h24.41.522,SelfAnchoring,2021.2.3,MacIntel,59.84082341,,,,,,,,,,,,,,right,2.0018,Neat,Overestimator,Underestimator,Underestimator,1,0,121,121,78,1
,,,,,,,,,,Untiring,139,59058,2022-05-01_20h24.41.522,SelfAnchoring,2021.2.3,MacIntel,59.84082341,,,,,,,,,,,,,,right,0.8668,Untiring,Overestimator,Underestimator,Underestimator,1,0,122,122,138,1
,,,,,,,,,,Self-sufficient,115,59058,2022-05-01_20h24.41.522,SelfAnchoring,2021.2.3,MacIntel,59.84082341,,,,,,,,,,,,,,right,1.5117,Self-sufficient,Overestimator,Underestimator,Underestimator,1,0,123,123,114,1
,,,,,,,,,,Good-natured,55,59058,2022-05-01_20h24.41.522,SelfAnchoring,2021.2.3,MacIntel,59.84082341,,,,,,,,,,,,,,right,1.985,Good-natured,Overestimator,Underestimator,Underestimator,1,0,124,124,54,1
,,,,,,,,,,Frank,45,59058,2022-05-01_20h24.41.522,SelfAnchoring,2021.2.3,MacIntel,59.84082341,,,,,,,,,,,,,,left,1.6631,Frank,Overestimator,Underestimator,Overestimator,2,0,125,125,44,1
,,,,,,,,,,Normal,81,59058,2022-05-01_20h24.41.522,SelfAnchoring,2021.2.3,MacIntel,59.84082341,,,,,,,,,,,,,,right,1.2029,Normal,Overestimator,Underestimator,Underestimator,1,0,126,126,80,1
,,,,,,,,,,Romantic,111,59058,2022-05-01_20h24.41.522,SelfAnchoring,2021.2.3,MacIntel,59.84082341,,,,,,,,,,,,,,left,3.1933,Romantic,Overestimator,Underestimator,Overestimator,2,0,127,127,110,1
,,,,,,,,,,Lenient,69,59058,2022-05-01_20h24.41.522,SelfAnchoring,2021.2.3,MacIntel,59.84082341,,,,,,,,,,,,,,left,1.0997,Lenient,Overestimator,Underestimator,Overestimator,2,0,128,128,68,1
,,,,,,,,,,Natural,78,59058,2022-05-01_20h24.41.522,SelfAnchoring,2021.2.3,MacIntel,59.84082341,,,,,,,,,,,,,,right,1.8553,Natural,Overestimator,Underestimator,Underestimator,1,0,129,129,77,1
,,,,,,,,,,Well-spoken,146,59058,2022-05-01_20h24.41.522,SelfAnchoring,2021.2.3,MacIntel,59.84082341,,,,,,,,,,,,,,right,1.6239,Well-spoken,Overestimator,Underestimator,Underestimator,1,0,130,130,145,1
,,,,,,,,,,Comfortable,12,59058,2022-05-01_20h24.41.522,SelfAnchoring,2021.2.3,MacIntel,59.84082341,,,,,,,,,,,,,,left,1.4505,Comfortable,Overestimator,Underestimator,Overestimator,2,0,131,131,11,1
,,,,,,,,,,Helpful,59,59058,2022-05-01_20h24.41.522,SelfAnchoring,2021.2.3,MacIntel,59.84082341,,,,,,,,,,,,,,left,1.1858,Helpful,Overestimator,Underestimator,Overestimator,2,0,132,132,58,1
,,,,,,,,,,Industrious,64,59058,2022-05-01_20h24.41.522,SelfAnchoring,2021.2.3,MacIntel,59.84082341,,,,,,,,,,,,,,left,2.5423,Industrious,Overestimator,Underestimator,Overestimator,2,0,133,133,63,1
,,,,,,,,,,Unassuming,133,59058,2022-05-01_20h24.41.522,SelfAnchoring,2021.2.3,MacIntel,59.84082341,,,,,,,,,,,,,,left,1.5767,Unassuming,Overestimator,Underestimator,Overestimator,2,0,134,134,132,1
,,,,,,,,,,Philosophical,93,59058,2022-05-01_20h24.41.522,SelfAnchoring,2021.2.3,MacIntel,59.84082341,,,,,,,,,,,,,,right,2.0801,Philosophical,Overestimator,Underestimator,Underestimator,1,0,135,135,92,1
,,,,,,,,,,Sincere,118,59058,2022-05-01_20h24.41.522,SelfAnchoring,2021.2.3,MacIntel,59.84082341,,,,,,,,,,,,,,left,2.7883,Sincere,Overestimator,Underestimator,Overestimator,2,0,136,136,117,1
,,,,,,,,,,Constructive,20,59058,2022-05-01_20h24.41.522,SelfAnchoring,2021.2.3,MacIntel,59.84082341,,,,,,,,,,,,,,right,5.4628,Constructive,Overestimator,Underestimator,Underestimator,1,0,137,137,19,1
,,,,,,,,,,Ethical,37,59058,2022-05-01_20h24.41.522,SelfAnchoring,2021.2.3,MacIntel,59.84082341,,,,,,,,,,,,,,right,1.2854,Ethical,Overestimator,Underestimator,Underestimator,1,0,138,138,36,1
,,,,,,,,,,Tough,131,59058,2022-05-01_20h24.41.522,SelfAnchoring,2021.2.3,MacIntel,59.84082341,,,,,,,,,,,,,,left,1.3428,Tough,Overestimator,Underestimator,Overestimator,2,0,139,139,130,1
,,,,,,,,,,Honest,60,59058,2022-05-01_20h24.41.522,SelfAnchoring,2021.2.3,MacIntel,59.84082341,,,,,,,,,,,,,,left,8.6403,Honest,Overestimator,Underestimator,Overestimator,2,0,140,140,59,1
,,,,,,,,,,Loyal,72,59058,2022-05-01_20h24.41.522,SelfAnchoring,2021.2.3,MacIntel,59.84082341,,,,,,,,,,,,,,left,2.4081,Loyal,Overestimator,Underestimator,Overestimator,2,0,141,141,71,1
,,,,,,,,,,Knowledgeable,68,59058,2022-05-01_20h24.41.522,SelfAnchoring,2021.2.3,MacIntel,59.84082341,,,,,,,,,,,,,,right,2.7217,Knowledgeable,Overestimator,Underestimator,Underestimator,1,0,142,142,67,1
,,,,,,,,,,Lucky,73,59058,2022-05-01_20h24.41.522,SelfAnchoring,2021.2.3,MacIntel,59.84082341,,,,,,,,,,,,,,right,1.2836,Lucky,Overestimator,Underestimator,Underestimator,1,0,143,143,72,1
,,,,,,,,,,Sentimental,117,59058,2022-05-01_20h24.41.522,SelfAnchoring,2021.2.3,MacIntel,59.84082341,,,,,,,,,,,,,,right,15.7596,Sentimental,Overestimator,Underestimator,Underestimator,1,0,144,144,116,1
,,,,,,,,,,Well-read,145,59058,2022-05-01_20h24.41.522,SelfAnchoring,2021.2.3,MacIntel,59.84082341,,,,,,,,,,,,,,right,2.5366,Well-read,Overestimator,Underestimator,Underestimator,1,0,145,145,144,1
,,,,,,,,,,Calm,3,59058,2022-05-01_20h24.41.522,SelfAnchoring,2021.2.3,MacIntel,59.84082341,,,,,,,,,,,,,,right,1.8176,Calm,Overestimator,Underestimator,Underestimator,1,0,146,146,2,1
,,,,,,,,,,Prompt,99,59058,2022-05-01_20h24.41.522,SelfAnchoring,2021.2.3,MacIntel,59.84082341,,,,,,,,,,,,,,right,1.0669,Prompt,Overestimator,Underestimator,Underestimator,1,0,147,147,98,1
