Estimator,toCont.keys,toCont.rt,SE.keys,SE.rt,trials_2.thisRepN,trials_2.thisTrialN,trials_2.thisN,trials_2.thisIndex,trials_2.ran,trait,Idx,participant,date,expName,psychopyVersion,OS,frameRate,toCont_2.keys,toCont_2.rt,EnterGuess.text,Guess,dotestLoop.thisRepN,dotestLoop.thisTrialN,dotestLoop.thisN,dotestLoop.thisIndex,dotestLoop.ran,dp,Confirm2.text,toCont_3.keys,toCont_3.rt,resp.keys,resp.rt,traitC,optionLeft,optionRight,optionChoice,choiceResp,choices.thisRepN,choices.thisTrialN,choices.thisN,choices.thisIndex,choices.ran
Overestimator,space,13.4077,5,5.4643,0,0,0,85,1,Respectable,109,59066,2022-05-01_14h37.51.424,SelfAnchoring,2021.2.3,Win32,59.93407252,,,,,,,,,,,,,,,,,,,,,,,,,
,,,3,3.9614,0,1,1,3,1,Subtle,127,59066,2022-05-01_14h37.51.424,SelfAnchoring,2021.2.3,Win32,59.93407252,,,,,,,,,,,,,,,,,,,,,,,,,
,,,5,1.6937,0,2,2,71,1,Prideful,98,59066,2022-05-01_14h37.51.424,SelfAnchoring,2021.2.3,Win32,59.93407252,,,,,,,,,,,,,,,,,,,,,,,,,
,,,4,1.9115,0,3,3,43,1,Inventive,67,59066,2022-05-01_14h37.51.424,SelfAnchoring,2021.2.3,Win32,59.93407252,,,,,,,,,,,,,,,,,,,,,,,,,
,,,6,2.0925,0,4,4,7,1,Reserved,108,59066,2022-05-01_14h37.51.424,SelfAnchoring,2021.2.3,Win32,59.93407252,,,,,,,,,,,,,,,,,,,,,,,,,
,,,5,2.2072,0,5,5,58,1,Open-minded,82,59066,2022-05-01_14h37.51.424,SelfAnchoring,2021.2.3,Win32,59.93407252,,,,,,,,,,,,,,,,,,,,,,,,,
,,,7,1.4331,0,6,6,68,1,Scientific,112,59066,2022-05-01_14h37.51.424,SelfAnchoring,2021.2.3,Win32,59.93407252,,,,,,,,,,,,,,,,,,,,,,,,,
,,,5,1.7927,0,7,7,86,1,Composed,15,59066,2022-05-01_14h37.51.424,SelfAnchoring,2021.2.3,Win32,59.93407252,,,,,,,,,,,,,,,,,,,,,,,,,
,,,4,3.0263,0,8,8,48,1,Foresighted,44,59066,2022-05-01_14h37.51.424,SelfAnchoring,2021.2.3,Win32,59.93407252,,,,,,,,,,,,,,,,,,,,,,,,,
,,,5,2.0348,0,9,9,35,1,Quiet,104,59066,2022-05-01_14h37.51.424,SelfAnchoring,2021.2.3,Win32,59.93407252,,,,,,,,,,,,,,,,,,,,,,,,,
,,,3,2.9534,0,10,10,11,1,Elegant,35,59066,2022-05-01_14h37.51.424,SelfAnchoring,2021.2.3,Win32,59.93407252,,,,,,,,,,,,,,,,,,,,,,,,,
,,,6,1.9508,0,11,11,27,1,Deep,26,59066,2022-05-01_14h37.51.424,SelfAnchoring,2021.2.3,Win32,59.93407252,,,,,,,,,,,,,,,,,,,,,,,,,
,,,6,1.1443,0,12,12,59,1,Contemplative,21,59066,2022-05-01_14h37.51.424,SelfAnchoring,2021.2.3,Win32,59.93407252,,,,,,,,,,,,,,,,,,,,,,,,,
,,,6,0.8705,0,13,13,5,1,Constructive,20,59066,2022-05-01_14h37.51.424,SelfAnchoring,2021.2.3,Win32,59.93407252,,,,,,,,,,,,,,,,,,,,,,,,,
,,,2,2.019,0,14,14,45,1,Delicate,28,59066,2022-05-01_14h37.51.424,SelfAnchoring,2021.2.3,Win32,59.93407252,,,,,,,,,,,,,,,,,,,,,,,,,
,,,4,1.8981,0,15,15,81,1,Unafraid,132,59066,2022-05-01_14h37.51.424,SelfAnchoring,2021.2.3,Win32,59.93407252,,,,,,,,,,,,,,,,,,,,,,,,,
,,,5,1.5613,0,16,16,13,1,Persistent,92,59066,2022-05-01_14h37.51.424,SelfAnchoring,2021.2.3,Win32,59.93407252,,,,,,,,,,,,,,,,,,,,,,,,,
,,,6,1.5476,0,17,17,41,1,Glad,52,59066,2022-05-01_14h37.51.424,SelfAnchoring,2021.2.3,Win32,59.93407252,,,,,,,,,,,,,,,,,,,,,,,,,
,,,5,1.3137,0,18,18,17,1,Fun,47,59066,2022-05-01_14h37.51.424,SelfAnchoring,2021.2.3,Win32,59.93407252,,,,,,,,,,,,,,,,,,,,,,,,,
,,,5,1.0264,0,19,19,84,1,Romantic,111,59066,2022-05-01_14h37.51.424,SelfAnchoring,2021.2.3,Win32,59.93407252,,,,,,,,,,,,,,,,,,,,,,,,,
,,,5,0.9558,0,20,20,31,1,Perfectionistic,90,59066,2022-05-01_14h37.51.424,SelfAnchoring,2021.2.3,Win32,59.93407252,,,,,,,,,,,,,,,,,,,,,,,,,
,,,5,1.1053,0,21,21,42,1,Optimistic,83,59066,2022-05-01_14h37.51.424,SelfAnchoring,2021.2.3,Win32,59.93407252,,,,,,,,,,,,,,,,,,,,,,,,,
,,,6,1.4463,0,22,22,64,1,Cordial,23,59066,2022-05-01_14h37.51.424,SelfAnchoring,2021.2.3,Win32,59.93407252,,,,,,,,,,,,,,,,,,,,,,,,,
,,,3,2.086,0,23,23,19,1,Neat,79,59066,2022-05-01_14h37.51.424,SelfAnchoring,2021.2.3,Win32,59.93407252,,,,,,,,,,,,,,,,,,,,,,,,,
,,,6,1.8488,0,24,24,18,1,Sincere,118,59066,2022-05-01_14h37.51.424,SelfAnchoring,2021.2.3,Win32,59.93407252,,,,,,,,,,,,,,,,,,,,,,,,,
,,,4,2.6785,0,25,25,9,1,Warm,142,59066,2022-05-01_14h37.51.424,SelfAnchoring,2021.2.3,Win32,59.93407252,,,,,,,,,,,,,,,,,,,,,,,,,
,,,7,1.3465,0,26,26,1,1,Rational,105,59066,2022-05-01_14h37.51.424,SelfAnchoring,2021.2.3,Win32,59.93407252,,,,,,,,,,,,,,,,,,,,,,,,,
,,,5,1.4007,0,27,27,62,1,Concise,16,59066,2022-05-01_14h37.51.424,SelfAnchoring,2021.2.3,Win32,59.93407252,,,,,,,,,,,,,,,,,,,,,,,,,
,,,5,0.9458,0,28,28,57,1,Comfortable,12,59066,2022-05-01_14h37.51.424,SelfAnchoring,2021.2.3,Win32,59.93407252,,,,,,,,,,,,,,,,,,,,,,,,,
,,,4,2.4087,0,29,29,21,1,Economical,34,59066,2022-05-01_14h37.51.424,SelfAnchoring,2021.2.3,Win32,59.93407252,,,,,,,,,,,,,,,,,,,,,,,,,
,,,4,1.8931,0,30,30,6,1,Outspoken,87,59066,2022-05-01_14h37.51.424,SelfAnchoring,2021.2.3,Win32,59.93407252,,,,,,,,,,,,,,,,,,,,,,,,,
,,,5,1.4645,0,31,31,87,1,Philosophical,93,59066,2022-05-01_14h37.51.424,SelfAnchoring,2021.2.3,Win32,59.93407252,,,,,,,,,,,,,,,,,,,,,,,,,
,,,5,2.7355,0,32,32,56,1,Unenvious,135,59066,2022-05-01_14h37.51.424,SelfAnchoring,2021.2.3,Win32,59.93407252,,,,,,,,,,,,,,,,,,,,,,,,,
,,,5,0.8999,0,33,33,8,1,Precise,97,59066,2022-05-01_14h37.51.424,SelfAnchoring,2021.2.3,Win32,59.93407252,,,,,,,,,,,,,,,,,,,,,,,,,
,,,4,1.486,0,34,34,50,1,Cooperative,22,59066,2022-05-01_14h37.51.424,SelfAnchoring,2021.2.3,Win32,59.93407252,,,,,,,,,,,,,,,,,,,,,,,,,
,,,5,1.1552,0,35,35,52,1,Self-critical,114,59066,2022-05-01_14h37.51.424,SelfAnchoring,2021.2.3,Win32,59.93407252,,,,,,,,,,,,,,,,,,,,,,,,,
,,,5,2.9104,0,36,36,83,1,Unselfish,138,59066,2022-05-01_14h37.51.424,SelfAnchoring,2021.2.3,Win32,59.93407252,,,,,,,,,,,,,,,,,,,,,,,,,
,,,5,1.1898,0,37,37,26,1,Good-tempered,56,59066,2022-05-01_14h37.51.424,SelfAnchoring,2021.2.3,Win32,59.93407252,,,,,,,,,,,,,,,,,,,,,,,,,
,,,3,1.6815,0,38,38,90,1,Fearless,42,59066,2022-05-01_14h37.51.424,SelfAnchoring,2021.2.3,Win32,59.93407252,,,,,,,,,,,,,,,,,,,,,,,,,
,,,5,1.3315,0,39,39,2,1,Confident,17,59066,2022-05-01_14h37.51.424,SelfAnchoring,2021.2.3,Win32,59.93407252,,,,,,,,,,,,,,,,,,,,,,,,,
,,,5,0.972,0,40,40,28,1,Dedicated,25,59066,2022-05-01_14h37.51.424,SelfAnchoring,2021.2.3,Win32,59.93407252,,,,,,,,,,,,,,,,,,,,,,,,,
,,,3,1.8672,0,41,41,14,1,Clean-cut,9,59066,2022-05-01_14h37.51.424,SelfAnchoring,2021.2.3,Win32,59.93407252,,,,,,,,,,,,,,,,,,,,,,,,,
,,,5,1.1108,0,42,42,70,1,Verbal,140,59066,2022-05-01_14h37.51.424,SelfAnchoring,2021.2.3,Win32,59.93407252,,,,,,,,,,,,,,,,,,,,,,,,,
,,,5,0.7303,0,43,43,69,1,Good,53,59066,2022-05-01_14h37.51.424,SelfAnchoring,2021.2.3,Win32,59.93407252,,,,,,,,,,,,,,,,,,,,,,,,,
,,,5,2.4887,0,44,44,61,1,Orderly,84,59066,2022-05-01_14h37.51.424,SelfAnchoring,2021.2.3,Win32,59.93407252,,,,,,,,,,,,,,,,,,,,,,,,,
,,,7,1.3553,0,45,45,88,1,Smart,120,59066,2022-05-01_14h37.51.424,SelfAnchoring,2021.2.3,Win32,59.93407252,,,,,,,,,,,,,,,,,,,,,,,,,
,,,5,1.6544,0,46,46,55,1,Stable,123,59066,2022-05-01_14h37.51.424,SelfAnchoring,2021.2.3,Win32,59.93407252,,,,,,,,,,,,,,,,,,,,,,,,,
,,,6,1.4433,0,47,47,16,1,Well-read,145,59066,2022-05-01_14h37.51.424,SelfAnchoring,2021.2.3,Win32,59.93407252,,,,,,,,,,,,,,,,,,,,,,,,,
,,,6,1.0525,0,48,48,82,1,Sentimental,117,59066,2022-05-01_14h37.51.424,SelfAnchoring,2021.2.3,Win32,59.93407252,,,,,,,,,,,,,,,,,,,,,,,,,
,,,5,1.7112,0,49,49,72,1,Calm,3,59066,2022-05-01_14h37.51.424,SelfAnchoring,2021.2.3,Win32,59.93407252,,,,,,,,,,,,,,,,,,,,,,,,,
,,,5,1.1027,0,50,50,65,1,Faithful,41,59066,2022-05-01_14h37.51.424,SelfAnchoring,2021.2.3,Win32,59.93407252,,,,,,,,,,,,,,,,,,,,,,,,,
,,,4,2.0764,0,51,51,36,1,Polished,94,59066,2022-05-01_14h37.51.424,SelfAnchoring,2021.2.3,Win32,59.93407252,,,,,,,,,,,,,,,,,,,,,,,,,
,,,5,1.9416,0,52,52,67,1,Deliberate,27,59066,2022-05-01_14h37.51.424,SelfAnchoring,2021.2.3,Win32,59.93407252,,,,,,,,,,,,,,,,,,,,,,,,,
,,,5,0.8588,0,53,53,4,1,Eager,33,59066,2022-05-01_14h37.51.424,SelfAnchoring,2021.2.3,Win32,59.93407252,,,,,,,,,,,,,,,,,,,,,,,,,
,,,4,2.0738,0,54,54,66,1,Flexible,43,59066,2022-05-01_14h37.51.424,SelfAnchoring,2021.2.3,Win32,59.93407252,,,,,,,,,,,,,,,,,,,,,,,,,
,,,3,1.4794,0,55,55,77,1,Innocent,65,59066,2022-05-01_14h37.51.424,SelfAnchoring,2021.2.3,Win32,59.93407252,,,,,,,,,,,,,,,,,,,,,,,,,
,,,6,1.9172,0,56,56,54,1,Lenient,69,59066,2022-05-01_14h37.51.424,SelfAnchoring,2021.2.3,Win32,59.93407252,,,,,,,,,,,,,,,,,,,,,,,,,
,,,5,1.4218,0,57,57,22,1,Communicative,13,59066,2022-05-01_14h37.51.424,SelfAnchoring,2021.2.3,Win32,59.93407252,,,,,,,,,,,,,,,,,,,,,,,,,
,,,5,1.2641,0,58,58,15,1,Prudent,100,59066,2022-05-01_14h37.51.424,SelfAnchoring,2021.2.3,Win32,59.93407252,,,,,,,,,,,,,,,,,,,,,,,,,
,,,5,0.8505,0,59,59,49,1,Purposeful,102,59066,2022-05-01_14h37.51.424,SelfAnchoring,2021.2.3,Win32,59.93407252,,,,,,,,,,,,,,,,,,,,,,,,,
,,,5,1.0643,0,60,60,47,1,Accurate,1,59066,2022-05-01_14h37.51.424,SelfAnchoring,2021.2.3,Win32,59.93407252,,,,,,,,,,,,,,,,,,,,,,,,,
,,,6,1.3221,0,61,61,33,1,Refined,107,59066,2022-05-01_14h37.51.424,SelfAnchoring,2021.2.3,Win32,59.93407252,,,,,,,,,,,,,,,,,,,,,,,,,
,,,5,1.7444,0,62,62,20,1,Casual,5,59066,2022-05-01_14h37.51.424,SelfAnchoring,2021.2.3,Win32,59.93407252,,,,,,,,,,,,,,,,,,,,,,,,,
,,,6,2.7251,0,63,63,29,1,Skillful,119,59066,2022-05-01_14h37.51.424,SelfAnchoring,2021.2.3,Win32,59.93407252,,,,,,,,,,,,,,,,,,,,,,,,,
,,,6,4.9733,0,64,64,25,1,Respectful,110,59066,2022-05-01_14h37.51.424,SelfAnchoring,2021.2.3,Win32,59.93407252,,,,,,,,,,,,,,,,,,,,,,,,,
,,,5,6.985,0,65,65,80,1,Honest,60,59066,2022-05-01_14h37.51.424,SelfAnchoring,2021.2.3,Win32,59.93407252,,,,,,,,,,,,,,,,,,,,,,,,,
,,,6,1.0911,0,66,66,34,1,Level-headed,70,59066,2022-05-01_14h37.51.424,SelfAnchoring,2021.2.3,Win32,59.93407252,,,,,,,,,,,,,,,,,,,,,,,,,
,,,5,1.5173,0,67,67,51,1,Good-natured,55,59066,2022-05-01_14h37.51.424,SelfAnchoring,2021.2.3,Win32,59.93407252,,,,,,,,,,,,,,,,,,,,,,,,,
,,,6,0.2439,0,68,68,63,1,Studious,126,59066,2022-05-01_14h37.51.424,SelfAnchoring,2021.2.3,Win32,59.93407252,,,,,,,,,,,,,,,,,,,,,,,,,
,,,5,0.3522,0,69,69,40,1,Enthusiastic,36,59066,2022-05-01_14h37.51.424,SelfAnchoring,2021.2.3,Win32,59.93407252,,,,,,,,,,,,,,,,,,,,,,,,,
,,,4,0.1948,0,70,70,89,1,Charming,7,59066,2022-05-01_14h37.51.424,SelfAnchoring,2021.2.3,Win32,59.93407252,,,,,,,,,,,,,,,,,,,,,,,,,
,,,5,0.1121,0,71,71,78,1,Thoughtful,129,59066,2022-05-01_14h37.51.424,SelfAnchoring,2021.2.3,Win32,59.93407252,,,,,,,,,,,,,,,,,,,,,,,,,
,,,4,0.0752,0,72,72,76,1,Clean,8,59066,2022-05-01_14h37.51.424,SelfAnchoring,2021.2.3,Win32,59.93407252,,,,,,,,,,,,,,,,,,,,,,,,,
,,,5,0.212,0,73,73,32,1,Healthy,58,59066,2022-05-01_14h37.51.424,SelfAnchoring,2021.2.3,Win32,59.93407252,,,,,,,,,,,,,,,,,,,,,,,,,
,,,4,0.2523,0,74,74,30,1,Knowledgeable,68,59066,2022-05-01_14h37.51.424,SelfAnchoring,2021.2.3,Win32,59.93407252,,,,,,,,,,,,,,,,,,,,,,,,,
,,,5,0.1317,0,75,75,24,1,Understanding,134,59066,2022-05-01_14h37.51.424,SelfAnchoring,2021.2.3,Win32,59.93407252,,,,,,,,,,,,,,,,,,,,,,,,,
,,,4,0.129,0,76,76,53,1,Humorous,63,59066,2022-05-01_14h37.51.424,SelfAnchoring,2021.2.3,Win32,59.93407252,,,,,,,,,,,,,,,,,,,,,,,,,
,,,5,0.8065,0,77,77,75,1,Sophisticated,122,59066,2022-05-01_14h37.51.424,SelfAnchoring,2021.2.3,Win32,59.93407252,,,,,,,,,,,,,,,,,,,,,,,,,
,,,4,12.7728,0,78,78,60,1,Realistic,106,59066,2022-05-01_14h37.51.424,SelfAnchoring,2021.2.3,Win32,59.93407252,,,,,,,,,,,,,,,,,,,,,,,,,
,,,5,4.3553,0,79,79,73,1,Conscientious,18,59066,2022-05-01_14h37.51.424,SelfAnchoring,2021.2.3,Win32,59.93407252,,,,,,,,,,,,,,,,,,,,,,,,,
,,,5,2.1517,0,80,80,46,1,Tough,131,59066,2022-05-01_14h37.51.424,SelfAnchoring,2021.2.3,Win32,59.93407252,,,,,,,,,,,,,,,,,,,,,,,,,
,,,5,3.8417,0,81,81,39,1,Self-sufficient,115,59066,2022-05-01_14h37.51.424,SelfAnchoring,2021.2.3,Win32,59.93407252,,,,,,,,,,,,,,,,,,,,,,,,,
,,,6,7.1939,0,82,82,10,1,Unpretentious,137,59066,2022-05-01_14h37.51.424,SelfAnchoring,2021.2.3,Win32,59.93407252,,,,,,,,,,,,,,,,,,,,,,,,,
,,,4,2.3183,0,83,83,12,1,Well-organized,144,59066,2022-05-01_14h37.51.424,SelfAnchoring,2021.2.3,Win32,59.93407252,,,,,,,,,,,,,,,,,,,,,,,,,
,,,5,1.9704,0,84,84,79,1,Positive,95,59066,2022-05-01_14h37.51.424,SelfAnchoring,2021.2.3,Win32,59.93407252,,,,,,,,,,,,,,,,,,,,,,,,,
,,,5,1.5319,0,85,85,44,1,Dignified,31,59066,2022-05-01_14h37.51.424,SelfAnchoring,2021.2.3,Win32,59.93407252,,,,,,,,,,,,,,,,,,,,,,,,,
,,,6,1.2459,0,86,86,38,1,Frank,45,59066,2022-05-01_14h37.51.424,SelfAnchoring,2021.2.3,Win32,59.93407252,,,,,,,,,,,,,,,,,,,,,,,,,
,,,4,1.8246,0,87,87,74,1,Punctual,101,59066,2022-05-01_14h37.51.424,SelfAnchoring,2021.2.3,Win32,59.93407252,,,,,,,,,,,,,,,,,,,,,,,,,
,,,7,21.3095,0,88,88,37,1,Loyal,72,59066,2022-05-01_14h37.51.424,SelfAnchoring,2021.2.3,Win32,59.93407252,,,,,,,,,,,,,,,,,,,,,,,,,
,,,5,0.9743,0,89,89,23,1,Charitable,6,59066,2022-05-01_14h37.51.424,SelfAnchoring,2021.2.3,Win32,59.93407252,,,,,,,,,,,,,,,,,,,,,,,,,
,,,5,0.5745,0,90,90,0,1,Passionate,88,59066,2022-05-01_14h37.51.424,SelfAnchoring,2021.2.3,Win32,59.93407252,,,,,,,,,,,,,,,,,,,,,,,,,
,,,,,,,,,,,,59066,2022-05-01_14h37.51.424,SelfAnchoring,2021.2.3,Win32,59.93407252,space,17.1788,56,,0,0,0,2,1,plot3.jpg,,,,,,,,,,,,,,,
,,,,,,,,,,,,59066,2022-05-01_14h37.51.424,SelfAnchoring,2021.2.3,Win32,59.93407252,,,87,,0,1,1,0,1,plot1.jpg,,,,,,,,,,,,,,,
,,,,,,,,,,,,59066,2022-05-01_14h37.51.424,SelfAnchoring,2021.2.3,Win32,59.93407252,,,45,,0,2,2,8,1,plot9.jpg,,,,,,,,,,,,,,,
,,,,,,,,,,,,59066,2022-05-01_14h37.51.424,SelfAnchoring,2021.2.3,Win32,59.93407252,,,52,,0,3,3,5,1,plot6.jpg,,,,,,,,,,,,,,,
,,,,,,,,,,,,59066,2022-05-01_14h37.51.424,SelfAnchoring,2021.2.3,Win32,59.93407252,,,32,,0,4,4,9,1,plot10.jpg,,,,,,,,,,,,,,,
,,,,,,,,,,,,59066,2022-05-01_14h37.51.424,SelfAnchoring,2021.2.3,Win32,59.93407252,,,64,,0,5,5,4,1,plot5.jpg,,,,,,,,,,,,,,,
,,,,,,,,,,,,59066,2022-05-01_14h37.51.424,SelfAnchoring,2021.2.3,Win32,59.93407252,,,70,,0,6,6,3,1,plot4.jpg,,,,,,,,,,,,,,,
,,,,,,,,,,,,59066,2022-05-01_14h37.51.424,SelfAnchoring,2021.2.3,Win32,59.93407252,,,56,,0,7,7,6,1,plot7.jpg,,,,,,,,,,,,,,,
,,,,,,,,,,,,59066,2022-05-01_14h37.51.424,SelfAnchoring,2021.2.3,Win32,59.93407252,,,6,,0,8,8,7,1,plot8.jpg,,,,,,,,,,,,,,,
,,,,,,,,,,,,59066,2022-05-01_14h37.51.424,SelfAnchoring,2021.2.3,Win32,59.93407252,,,51,,0,9,9,1,1,plot2.jpg,,,,,,,,,,,,,,,
,,,,,,,,,,Industrious,64,59066,2022-05-01_14h37.51.424,SelfAnchoring,2021.2.3,Win32,59.93407252,,,,,,,,,,,I am a Overestimator,space,13.7976,left,3.5936,Industrious,Overestimator,Underestimator,Overestimator,2,0,0,0,63,1
,,,,,,,,,,Purposeful,102,59066,2022-05-01_14h37.51.424,SelfAnchoring,2021.2.3,Win32,59.93407252,,,,,,,,,,,,,,left,1.7353,Purposeful,Overestimator,Underestimator,Overestimator,2,0,1,1,101,1
,,,,,,,,,,Extraverted,39,59066,2022-05-01_14h37.51.424,SelfAnchoring,2021.2.3,Win32,59.93407252,,,,,,,,,,,,,,left,1.7828,Extraverted,Overestimator,Underestimator,Overestimator,2,0,2,2,38,1
,,,,,,,,,,Composed,15,59066,2022-05-01_14h37.51.424,SelfAnchoring,2021.2.3,Win32,59.93407252,,,,,,,,,,,,,,left,1.6759,Composed,Overestimator,Underestimator,Overestimator,2,0,3,3,14,1
,,,,,,,,,,Philosophical,93,59066,2022-05-01_14h37.51.424,SelfAnchoring,2021.2.3,Win32,59.93407252,,,,,,,,,,,,,,left,2.1137,Philosophical,Overestimator,Underestimator,Overestimator,2,0,4,4,92,1
,,,,,,,,,,Lucky,73,59066,2022-05-01_14h37.51.424,SelfAnchoring,2021.2.3,Win32,59.93407252,,,,,,,,,,,,,,right,2.155,Lucky,Overestimator,Underestimator,Underestimator,1,0,5,5,72,1
,,,,,,,,,,Romantic,111,59066,2022-05-01_14h37.51.424,SelfAnchoring,2021.2.3,Win32,59.93407252,,,,,,,,,,,,,,right,1.0588,Romantic,Overestimator,Underestimator,Underestimator,1,0,6,6,110,1
,,,,,,,,,,Frank,45,59066,2022-05-01_14h37.51.424,SelfAnchoring,2021.2.3,Win32,59.93407252,,,,,,,,,,,,,,right,1.4659,Frank,Overestimator,Underestimator,Underestimator,1,0,7,7,44,1
,,,,,,,,,,Steady,124,59066,2022-05-01_14h37.51.424,SelfAnchoring,2021.2.3,Win32,59.93407252,,,,,,,,,,,,,,left,1.0235,Steady,Overestimator,Underestimator,Overestimator,2,0,8,8,123,1
,,,,,,,,,,Hospitable,61,59066,2022-05-01_14h37.51.424,SelfAnchoring,2021.2.3,Win32,59.93407252,,,,,,,,,,,,,,left,1.5338,Hospitable,Overestimator,Underestimator,Overestimator,2,0,9,9,60,1
,,,,,,,,,,Prompt,99,59066,2022-05-01_14h37.51.424,SelfAnchoring,2021.2.3,Win32,59.93407252,,,,,,,,,,,,,,left,1.3005,Prompt,Overestimator,Underestimator,Overestimator,2,0,10,10,98,1
,,,,,,,,,,Nice,80,59066,2022-05-01_14h37.51.424,SelfAnchoring,2021.2.3,Win32,59.93407252,,,,,,,,,,,,,,left,1.5528,Nice,Overestimator,Underestimator,Overestimator,2,0,11,11,79,1
,,,,,,,,,,Mathematical,74,59066,2022-05-01_14h37.51.424,SelfAnchoring,2021.2.3,Win32,59.93407252,,,,,,,,,,,,,,left,1.0096,Mathematical,Overestimator,Underestimator,Overestimator,2,0,12,12,73,1
,,,,,,,,,,Faithful,41,59066,2022-05-01_14h37.51.424,SelfAnchoring,2021.2.3,Win32,59.93407252,,,,,,,,,,,,,,right,1.0108,Faithful,Overestimator,Underestimator,Underestimator,1,0,13,13,40,1
,,,,,,,,,,Economical,34,59066,2022-05-01_14h37.51.424,SelfAnchoring,2021.2.3,Win32,59.93407252,,,,,,,,,,,,,,left,1.7256,Economical,Overestimator,Underestimator,Overestimator,2,0,14,14,33,1
,,,,,,,,,,Considerate,19,59066,2022-05-01_14h37.51.424,SelfAnchoring,2021.2.3,Win32,59.93407252,,,,,,,,,,,,,,right,1.9789,Considerate,Overestimator,Underestimator,Underestimator,1,0,15,15,18,1
,,,,,,,,,,Gentle,50,59066,2022-05-01_14h37.51.424,SelfAnchoring,2021.2.3,Win32,59.93407252,,,,,,,,,,,,,,right,0.8907,Gentle,Overestimator,Underestimator,Underestimator,1,0,16,16,49,1
,,,,,,,,,,Orderly,84,59066,2022-05-01_14h37.51.424,SelfAnchoring,2021.2.3,Win32,59.93407252,,,,,,,,,,,,,,left,1.5289,Orderly,Overestimator,Underestimator,Overestimator,2,0,17,17,83,1
,,,,,,,,,,Inquisitive,66,59066,2022-05-01_14h37.51.424,SelfAnchoring,2021.2.3,Win32,59.93407252,,,,,,,,,,,,,,left,2.0589,Inquisitive,Overestimator,Underestimator,Overestimator,2,0,18,18,65,1
,,,,,,,,,,Versatile,141,59066,2022-05-01_14h37.51.424,SelfAnchoring,2021.2.3,Win32,59.93407252,,,,,,,,,,,,,,left,1.2767,Versatile,Overestimator,Underestimator,Overestimator,2,0,19,19,140,1
,,,,,,,,,,Level-headed,70,59066,2022-05-01_14h37.51.424,SelfAnchoring,2021.2.3,Win32,59.93407252,,,,,,,,,,,,,,left,3.3346,Level-headed,Overestimator,Underestimator,Overestimator,2,0,20,20,69,1
,,,,,,,,,,Tough,131,59066,2022-05-01_14h37.51.424,SelfAnchoring,2021.2.3,Win32,59.93407252,,,,,,,,,,,,,,left,1.0631,Tough,Overestimator,Underestimator,Overestimator,2,0,21,21,130,1
,,,,,,,,,,Ethical,37,59066,2022-05-01_14h37.51.424,SelfAnchoring,2021.2.3,Win32,59.93407252,,,,,,,,,,,,,,right,1.1514,Ethical,Overestimator,Underestimator,Underestimator,1,0,22,22,36,1
,,,,,,,,,,Witty,148,59066,2022-05-01_14h37.51.424,SelfAnchoring,2021.2.3,Win32,59.93407252,,,,,,,,,,,,,,left,0.9693,Witty,Overestimator,Underestimator,Overestimator,2,0,23,23,147,1
,,,,,,,,,,Wise,147,59066,2022-05-01_14h37.51.424,SelfAnchoring,2021.2.3,Win32,59.93407252,,,,,,,,,,,,,,left,0.6343,Wise,Overestimator,Underestimator,Overestimator,2,0,24,24,146,1
,,,,,,,,,,Precise,97,59066,2022-05-01_14h37.51.424,SelfAnchoring,2021.2.3,Win32,59.93407252,,,,,,,,,,,,,,left,1.7454,Precise,Overestimator,Underestimator,Overestimator,2,0,25,25,96,1
,,,,,,,,,,Experienced,38,59066,2022-05-01_14h37.51.424,SelfAnchoring,2021.2.3,Win32,59.93407252,,,,,,,,,,,,,,right,1.8023,Experienced,Overestimator,Underestimator,Underestimator,1,0,26,26,37,1
,,,,,,,,,,Compassionate,14,59066,2022-05-01_14h37.51.424,SelfAnchoring,2021.2.3,Win32,59.93407252,,,,,,,,,,,,,,right,2.0628,Compassionate,Overestimator,Underestimator,Underestimator,1,0,27,27,13,1
,,,,,,,,,,Thrifty,130,59066,2022-05-01_14h37.51.424,SelfAnchoring,2021.2.3,Win32,59.93407252,,,,,,,,,,,,,,right,1.9987,Thrifty,Overestimator,Underestimator,Underestimator,1,0,28,28,129,1
,,,,,,,,,,Clear-headed,10,59066,2022-05-01_14h37.51.424,SelfAnchoring,2021.2.3,Win32,59.93407252,,,,,,,,,,,,,,left,1.1889,Clear-headed,Overestimator,Underestimator,Overestimator,2,0,29,29,9,1
,,,,,,,,,,Sociable,121,59066,2022-05-01_14h37.51.424,SelfAnchoring,2021.2.3,Win32,59.93407252,,,,,,,,,,,,,,left,2.5779,Sociable,Overestimator,Underestimator,Overestimator,2,0,30,30,120,1
,,,,,,,,,,Concise,16,59066,2022-05-01_14h37.51.424,SelfAnchoring,2021.2.3,Win32,59.93407252,,,,,,,,,,,,,,left,1.4221,Concise,Overestimator,Underestimator,Overestimator,2,0,31,31,15,1
,,,,,,,,,,Positive,95,59066,2022-05-01_14h37.51.424,SelfAnchoring,2021.2.3,Win32,59.93407252,,,,,,,,,,,,,,left,0.7724,Positive,Overestimator,Underestimator,Overestimator,2,0,32,32,94,1
,,,,,,,,,,Dependable,30,59066,2022-05-01_14h37.51.424,SelfAnchoring,2021.2.3,Win32,59.93407252,,,,,,,,,,,,,,right,1.4757,Dependable,Overestimator,Underestimator,Underestimator,1,0,33,33,29,1
,,,,,,,,,,Glad,52,59066,2022-05-01_14h37.51.424,SelfAnchoring,2021.2.3,Win32,59.93407252,,,,,,,,,,,,,,right,1.201,Glad,Overestimator,Underestimator,Underestimator,1,0,34,34,51,1
,,,,,,,,,,Fearless,42,59066,2022-05-01_14h37.51.424,SelfAnchoring,2021.2.3,Win32,59.93407252,,,,,,,,,,,,,,left,1.4793,Fearless,Overestimator,Underestimator,Overestimator,2,0,35,35,41,1
,,,,,,,,,,Polished,94,59066,2022-05-01_14h37.51.424,SelfAnchoring,2021.2.3,Win32,59.93407252,,,,,,,,,,,,,,left,0.6334,Polished,Overestimator,Underestimator,Overestimator,2,0,36,36,93,1
,,,,,,,,,,Honest,60,59066,2022-05-01_14h37.51.424,SelfAnchoring,2021.2.3,Win32,59.93407252,,,,,,,,,,,,,,right,1.233,Honest,Overestimator,Underestimator,Underestimator,1,0,37,37,59,1
,,,,,,,,,,Deep,26,59066,2022-05-01_14h37.51.424,SelfAnchoring,2021.2.3,Win32,59.93407252,,,,,,,,,,,,,,right,1.2736,Deep,Overestimator,Underestimator,Underestimator,1,0,38,38,25,1
,,,,,,,,,,Courageous,24,59066,2022-05-01_14h37.51.424,SelfAnchoring,2021.2.3,Win32,59.93407252,,,,,,,,,,,,,,left,1.0259,Courageous,Overestimator,Underestimator,Overestimator,2,0,39,39,23,1
,,,,,,,,,,Foresighted,44,59066,2022-05-01_14h37.51.424,SelfAnchoring,2021.2.3,Win32,59.93407252,,,,,,,,,,,,,,left,1.0183,Foresighted,Overestimator,Underestimator,Overestimator,2,0,40,40,43,1
,,,,,,,,,,Verbal,140,59066,2022-05-01_14h37.51.424,SelfAnchoring,2021.2.3,Win32,59.93407252,,,,,,,,,,,,,,left,1.3644,Verbal,Overestimator,Underestimator,Overestimator,2,0,41,41,139,1
,,,,,,,,,,Disciplined,32,59066,2022-05-01_14h37.51.424,SelfAnchoring,2021.2.3,Win32,59.93407252,,,,,,,,,,,,,,left,0.6747,Disciplined,Overestimator,Underestimator,Overestimator,2,0,42,42,31,1
,,,,,,,,,,Peaceful,89,59066,2022-05-01_14h37.51.424,SelfAnchoring,2021.2.3,Win32,59.93407252,,,,,,,,,,,,,,right,0.7592,Peaceful,Overestimator,Underestimator,Underestimator,1,0,43,43,88,1
,,,,,,,,,,Capable,4,59066,2022-05-01_14h37.51.424,SelfAnchoring,2021.2.3,Win32,59.93407252,,,,,,,,,,,,,,left,0.8708,Capable,Overestimator,Underestimator,Overestimator,2,0,44,44,3,1
,,,,,,,,,,Dignified,31,59066,2022-05-01_14h37.51.424,SelfAnchoring,2021.2.3,Win32,59.93407252,,,,,,,,,,,,,,left,1.4972,Dignified,Overestimator,Underestimator,Overestimator,2,0,45,45,30,1
,,,,,,,,,,Accurate,1,59066,2022-05-01_14h37.51.424,SelfAnchoring,2021.2.3,Win32,59.93407252,,,,,,,,,,,,,,left,0.9712,Accurate,Overestimator,Underestimator,Overestimator,2,0,46,46,0,1
,,,,,,,,,,Moral,77,59066,2022-05-01_14h37.51.424,SelfAnchoring,2021.2.3,Win32,59.93407252,,,,,,,,,,,,,,right,0.924,Moral,Overestimator,Underestimator,Underestimator,1,0,47,47,76,1
,,,,,,,,,,Quiet,104,59066,2022-05-01_14h37.51.424,SelfAnchoring,2021.2.3,Win32,59.93407252,,,,,,,,,,,,,,right,0.8654,Quiet,Overestimator,Underestimator,Underestimator,1,0,48,48,103,1
,,,,,,,,,,Communicative,13,59066,2022-05-01_14h37.51.424,SelfAnchoring,2021.2.3,Win32,59.93407252,,,,,,,,,,,,,,right,1.7745,Communicative,Overestimator,Underestimator,Underestimator,1,0,49,49,12,1
,,,,,,,,,,Funny,48,59066,2022-05-01_14h37.51.424,SelfAnchoring,2021.2.3,Win32,59.93407252,,,,,,,,,,,,,,left,1.0002,Funny,Overestimator,Underestimator,Overestimator,2,0,50,50,47,1
,,,,,,,,,,Reserved,108,59066,2022-05-01_14h37.51.424,SelfAnchoring,2021.2.3,Win32,59.93407252,,,,,,,,,,,,,,right,1.5531,Reserved,Overestimator,Underestimator,Underestimator,1,0,51,51,107,1
,,,,,,,,,,Unpretentious,137,59066,2022-05-01_14h37.51.424,SelfAnchoring,2021.2.3,Win32,59.93407252,,,,,,,,,,,,,,left,2.2014,Unpretentious,Overestimator,Underestimator,Overestimator,2,0,52,52,136,1
,,,,,,,,,,Rational,105,59066,2022-05-01_14h37.51.424,SelfAnchoring,2021.2.3,Win32,59.93407252,,,,,,,,,,,,,,left,2.4507,Rational,Overestimator,Underestimator,Overestimator,2,0,53,53,104,1
,,,,,,,,,,Mature,75,59066,2022-05-01_14h37.51.424,SelfAnchoring,2021.2.3,Win32,59.93407252,,,,,,,,,,,,,,left,1.2119,Mature,Overestimator,Underestimator,Overestimator,2,0,54,54,74,1
,,,,,,,,,,Practical,96,59066,2022-05-01_14h37.51.424,SelfAnchoring,2021.2.3,Win32,59.93407252,,,,,,,,,,,,,,right,4.4328,Practical,Overestimator,Underestimator,Underestimator,1,0,55,55,95,1
,,,,,,,,,,Sincere,118,59066,2022-05-01_14h37.51.424,SelfAnchoring,2021.2.3,Win32,59.93407252,,,,,,,,,,,,,,right,1.4774,Sincere,Overestimator,Underestimator,Underestimator,1,0,56,56,117,1
,,,,,,,,,,Humorous,63,59066,2022-05-01_14h37.51.424,SelfAnchoring,2021.2.3,Win32,59.93407252,,,,,,,,,,,,,,left,1.0695,Humorous,Overestimator,Underestimator,Overestimator,2,0,57,57,62,1
,,,,,,,,,,Talkative,128,59066,2022-05-01_14h37.51.424,SelfAnchoring,2021.2.3,Win32,59.93407252,,,,,,,,,,,,,,right,1.2289,Talkative,Overestimator,Underestimator,Underestimator,1,0,58,58,127,1
,,,,,,,,,,Natural,78,59066,2022-05-01_14h37.51.424,SelfAnchoring,2021.2.3,Win32,59.93407252,,,,,,,,,,,,,,right,1.6436,Natural,Overestimator,Underestimator,Underestimator,1,0,59,59,77,1
,,,,,,,,,,Prideful,98,59066,2022-05-01_14h37.51.424,SelfAnchoring,2021.2.3,Win32,59.93407252,,,,,,,,,,,,,,left,0.6764,Prideful,Overestimator,Underestimator,Overestimator,2,0,60,60,97,1
,,,,,,,,,,Innocent,65,59066,2022-05-01_14h37.51.424,SelfAnchoring,2021.2.3,Win32,59.93407252,,,,,,,,,,,,,,right,1.4981,Innocent,Overestimator,Underestimator,Underestimator,1,0,61,61,64,1
,,,,,,,,,,Understanding,134,59066,2022-05-01_14h37.51.424,SelfAnchoring,2021.2.3,Win32,59.93407252,,,,,,,,,,,,,,left,2.869,Understanding,Overestimator,Underestimator,Overestimator,2,0,62,62,133,1
,,,,,,,,,,Good-natured,55,59066,2022-05-01_14h37.51.424,SelfAnchoring,2021.2.3,Win32,59.93407252,,,,,,,,,,,,,,right,0.9953,Good-natured,Overestimator,Underestimator,Underestimator,1,0,63,63,54,1
,,,,,,,,,,Unselfish,138,59066,2022-05-01_14h37.51.424,SelfAnchoring,2021.2.3,Win32,59.93407252,,,,,,,,,,,,,,left,1.1494,Unselfish,Overestimator,Underestimator,Overestimator,2,0,64,64,137,1
,,,,,,,,,,Generous,49,59066,2022-05-01_14h37.51.424,SelfAnchoring,2021.2.3,Win32,59.93407252,,,,,,,,,,,,,,right,1.396,Generous,Overestimator,Underestimator,Underestimator,1,0,65,65,48,1
,,,,,,,,,,Elegant,35,59066,2022-05-01_14h37.51.424,SelfAnchoring,2021.2.3,Win32,59.93407252,,,,,,,,,,,,,,right,1.0936,Elegant,Overestimator,Underestimator,Underestimator,1,0,66,66,34,1
,,,,,,,,,,Constructive,20,59066,2022-05-01_14h37.51.424,SelfAnchoring,2021.2.3,Win32,59.93407252,,,,,,,,,,,,,,left,1.1334,Constructive,Overestimator,Underestimator,Overestimator,2,0,67,67,19,1
,,,,,,,,,,Giving,51,59066,2022-05-01_14h37.51.424,SelfAnchoring,2021.2.3,Win32,59.93407252,,,,,,,,,,,,,,right,0.9118,Giving,Overestimator,Underestimator,Underestimator,1,0,68,68,50,1
,,,,,,,,,,Charitable,6,59066,2022-05-01_14h37.51.424,SelfAnchoring,2021.2.3,Win32,59.93407252,,,,,,,,,,,,,,left,1.7185,Charitable,Overestimator,Underestimator,Overestimator,2,0,69,69,5,1
,,,,,,,,,,Comfortable,12,59066,2022-05-01_14h37.51.424,SelfAnchoring,2021.2.3,Win32,59.93407252,,,,,,,,,,,,,,left,4.2242,Comfortable,Overestimator,Underestimator,Overestimator,2,0,70,70,11,1
,,,,,,,,,,Self-critical,114,59066,2022-05-01_14h37.51.424,SelfAnchoring,2021.2.3,Win32,59.93407252,,,,,,,,,,,,,,left,2.935,Self-critical,Overestimator,Underestimator,Overestimator,2,0,71,71,113,1
,,,,,,,,,,Normal,81,59066,2022-05-01_14h37.51.424,SelfAnchoring,2021.2.3,Win32,59.93407252,,,,,,,,,,,,,,right,1.8246,Normal,Overestimator,Underestimator,Underestimator,1,0,72,72,80,1
,,,,,,,,,,Deliberate,27,59066,2022-05-01_14h37.51.424,SelfAnchoring,2021.2.3,Win32,59.93407252,,,,,,,,,,,,,,right,1.473,Deliberate,Overestimator,Underestimator,Underestimator,1,0,73,73,26,1
,,,,,,,,,,Persistent,92,59066,2022-05-01_14h37.51.424,SelfAnchoring,2021.2.3,Win32,59.93407252,,,,,,,,,,,,,,left,0.7391,Persistent,Overestimator,Underestimator,Overestimator,2,0,74,74,91,1
,,,,,,,,,,Cordial,23,59066,2022-05-01_14h37.51.424,SelfAnchoring,2021.2.3,Win32,59.93407252,,,,,,,,,,,,,,right,1.0509,Cordial,Overestimator,Underestimator,Underestimator,1,0,75,75,22,1
,,,,,,,,,,Prudent,100,59066,2022-05-01_14h37.51.424,SelfAnchoring,2021.2.3,Win32,59.93407252,,,,,,,,,,,,,,left,1.7039,Prudent,Overestimator,Underestimator,Overestimator,2,0,76,76,99,1
,,,,,,,,,,Unenvious,135,59066,2022-05-01_14h37.51.424,SelfAnchoring,2021.2.3,Win32,59.93407252,,,,,,,,,,,,,,right,1.3259,Unenvious,Overestimator,Underestimator,Underestimator,1,0,77,77,134,1
,,,,,,,,,,Unprejudiced,136,59066,2022-05-01_14h37.51.424,SelfAnchoring,2021.2.3,Win32,59.93407252,,,,,,,,,,,,,,left,1.6079,Unprejudiced,Overestimator,Underestimator,Overestimator,2,0,78,78,135,1
,,,,,,,,,,Calm,3,59066,2022-05-01_14h37.51.424,SelfAnchoring,2021.2.3,Win32,59.93407252,,,,,,,,,,,,,,left,0.1446,Calm,Overestimator,Underestimator,Overestimator,2,0,79,79,2,1
,,,,,,,,,,Delicate,28,59066,2022-05-01_14h37.51.424,SelfAnchoring,2021.2.3,Win32,59.93407252,,,,,,,,,,,,,,left,0.897,Delicate,Overestimator,Underestimator,Overestimator,2,0,80,80,27,1
,,,,,,,,,,Untiring,139,59066,2022-05-01_14h37.51.424,SelfAnchoring,2021.2.3,Win32,59.93407252,,,,,,,,,,,,,,left,1.054,Untiring,Overestimator,Underestimator,Overestimator,2,0,81,81,138,1
,,,,,,,,,,Good,53,59066,2022-05-01_14h37.51.424,SelfAnchoring,2021.2.3,Win32,59.93407252,,,,,,,,,,,,,,right,1.5167,Good,Overestimator,Underestimator,Underestimator,1,0,82,82,52,1
,,,,,,,,,,Lenient,69,59066,2022-05-01_14h37.51.424,SelfAnchoring,2021.2.3,Win32,59.93407252,,,,,,,,,,,,,,left,1.425,Lenient,Overestimator,Underestimator,Overestimator,2,0,83,83,68,1
,,,,,,,,,,Loyal,72,59066,2022-05-01_14h37.51.424,SelfAnchoring,2021.2.3,Win32,59.93407252,,,,,,,,,,,,,,left,0.6527,Loyal,Overestimator,Underestimator,Overestimator,2,0,84,84,71,1
,,,,,,,,,,Cooperative,22,59066,2022-05-01_14h37.51.424,SelfAnchoring,2021.2.3,Win32,59.93407252,,,,,,,,,,,,,,right,1.867,Cooperative,Overestimator,Underestimator,Underestimator,1,0,85,85,21,1
,,,,,,,,,,Clean-cut,9,59066,2022-05-01_14h37.51.424,SelfAnchoring,2021.2.3,Win32,59.93407252,,,,,,,,,,,,,,right,0.6917,Clean-cut,Overestimator,Underestimator,Underestimator,1,0,86,86,8,1
,,,,,,,,,,Perfectionistic,90,59066,2022-05-01_14h37.51.424,SelfAnchoring,2021.2.3,Win32,59.93407252,,,,,,,,,,,,,,left,0.5733,Perfectionistic,Overestimator,Underestimator,Overestimator,2,0,87,87,89,1
,,,,,,,,,,Original,85,59066,2022-05-01_14h37.51.424,SelfAnchoring,2021.2.3,Win32,59.93407252,,,,,,,,,,,,,,left,1.0221,Original,Overestimator,Underestimator,Overestimator,2,0,88,88,84,1
,,,,,,,,,,Subtle,127,59066,2022-05-01_14h37.51.424,SelfAnchoring,2021.2.3,Win32,59.93407252,,,,,,,,,,,,,,right,1.1169,Subtle,Overestimator,Underestimator,Underestimator,1,0,89,89,126,1
,,,,,,,,,,Smart,120,59066,2022-05-01_14h37.51.424,SelfAnchoring,2021.2.3,Win32,59.93407252,,,,,,,,,,,,,,left,0.474,Smart,Overestimator,Underestimator,Overestimator,2,0,90,90,119,1
,,,,,,,,,,Scientific,112,59066,2022-05-01_14h37.51.424,SelfAnchoring,2021.2.3,Win32,59.93407252,,,,,,,,,,,,,,left,0.8525,Scientific,Overestimator,Underestimator,Overestimator,2,0,91,91,111,1
,,,,,,,,,,Skillful,119,59066,2022-05-01_14h37.51.424,SelfAnchoring,2021.2.3,Win32,59.93407252,,,,,,,,,,,,,,left,0.6057,Skillful,Overestimator,Underestimator,Overestimator,2,0,92,92,118,1
,,,,,,,,,,Healthy,58,59066,2022-05-01_14h37.51.424,SelfAnchoring,2021.2.3,Win32,59.93407252,,,,,,,,,,,,,,right,1.0387,Healthy,Overestimator,Underestimator,Underestimator,1,0,93,93,57,1
,,,,,,,,,,Self-sufficient,115,59066,2022-05-01_14h37.51.424,SelfAnchoring,2021.2.3,Win32,59.93407252,,,,,,,,,,,,,,left,0.7045,Self-sufficient,Overestimator,Underestimator,Overestimator,2,0,94,94,114,1
,,,,,,,,,,Straightforward,125,59066,2022-05-01_14h37.51.424,SelfAnchoring,2021.2.3,Win32,59.93407252,,,,,,,,,,,,,,left,1.0364,Straightforward,Overestimator,Underestimator,Overestimator,2,0,95,95,124,1
,,,,,,,,,,Good-tempered,56,59066,2022-05-01_14h37.51.424,SelfAnchoring,2021.2.3,Win32,59.93407252,,,,,,,,,,,,,,left,1.1278,Good-tempered,Overestimator,Underestimator,Overestimator,2,0,96,96,55,1
,,,,,,,,,,Quick-witted,103,59066,2022-05-01_14h37.51.424,SelfAnchoring,2021.2.3,Win32,59.93407252,,,,,,,,,,,,,,left,0.7632,Quick-witted,Overestimator,Underestimator,Overestimator,2,0,97,97,102,1
,,,,,,,,,,Humble,62,59066,2022-05-01_14h37.51.424,SelfAnchoring,2021.2.3,Win32,59.93407252,,,,,,,,,,,,,,right,1.4399,Humble,Overestimator,Underestimator,Underestimator,1,0,98,98,61,1
,,,,,,,,,,Friendly,46,59066,2022-05-01_14h37.51.424,SelfAnchoring,2021.2.3,Win32,59.93407252,,,,,,,,,,,,,,right,2.2537,Friendly,Overestimator,Underestimator,Underestimator,1,0,99,99,45,1
,,,,,,,,,,Modern,76,59066,2022-05-01_14h37.51.424,SelfAnchoring,2021.2.3,Win32,59.93407252,,,,,,,,,,,,,,right,1.6973,Modern,Overestimator,Underestimator,Underestimator,1,0,100,100,75,1
,,,,,,,,,,Clean,8,59066,2022-05-01_14h37.51.424,SelfAnchoring,2021.2.3,Win32,59.93407252,,,,,,,,,,,,,,left,1.7622,Clean,Overestimator,Underestimator,Overestimator,2,0,101,101,7,1
,,,,,,,,,,Contemplative,21,59066,2022-05-01_14h37.51.424,SelfAnchoring,2021.2.3,Win32,59.93407252,,,,,,,,,,,,,,right,0.7739,Contemplative,Overestimator,Underestimator,Underestimator,1,0,102,102,20,1
,,,,,,,,,,Knowledgeable,68,59066,2022-05-01_14h37.51.424,SelfAnchoring,2021.2.3,Win32,59.93407252,,,,,,,,,,,,,,left,0.6003,Knowledgeable,Overestimator,Underestimator,Overestimator,2,0,103,103,67,1
,,,,,,,,,,Passionate,88,59066,2022-05-01_14h37.51.424,SelfAnchoring,2021.2.3,Win32,59.93407252,,,,,,,,,,,,,,right,0.7998,Passionate,Overestimator,Underestimator,Underestimator,1,0,104,104,87,1
,,,,,,,,,,Clever,11,59066,2022-05-01_14h37.51.424,SelfAnchoring,2021.2.3,Win32,59.93407252,,,,,,,,,,,,,,left,0.7775,Clever,Overestimator,Underestimator,Overestimator,2,0,105,105,10,1
,,,,,,,,,,Stable,123,59066,2022-05-01_14h37.51.424,SelfAnchoring,2021.2.3,Win32,59.93407252,,,,,,,,,,,,,,right,0.6348,Stable,Overestimator,Underestimator,Underestimator,1,0,106,106,122,1
,,,,,,,,,,Inventive,67,59066,2022-05-01_14h37.51.424,SelfAnchoring,2021.2.3,Win32,59.93407252,,,,,,,,,,,,,,left,0.7171,Inventive,Overestimator,Underestimator,Overestimator,2,0,107,107,66,1
,,,,,,,,,,Optimistic,83,59066,2022-05-01_14h37.51.424,SelfAnchoring,2021.2.3,Win32,59.93407252,,,,,,,,,,,,,,right,1.5934,Optimistic,Overestimator,Underestimator,Underestimator,1,0,108,108,82,1
,,,,,,,,,,Outgoing,86,59066,2022-05-01_14h37.51.424,SelfAnchoring,2021.2.3,Win32,59.93407252,,,,,,,,,,,,,,right,1.3205,Outgoing,Overestimator,Underestimator,Underestimator,1,0,109,109,85,1
,,,,,,,,,,Well-organized,144,59066,2022-05-01_14h37.51.424,SelfAnchoring,2021.2.3,Win32,59.93407252,,,,,,,,,,,,,,right,0.992,Well-organized,Overestimator,Underestimator,Underestimator,1,0,110,110,143,1
,,,,,,,,,,Warm,142,59066,2022-05-01_14h37.51.424,SelfAnchoring,2021.2.3,Win32,59.93407252,,,,,,,,,,,,,,right,0.9683,Warm,Overestimator,Underestimator,Underestimator,1,0,111,111,141,1
,,,,,,,,,,Lively,71,59066,2022-05-01_14h37.51.424,SelfAnchoring,2021.2.3,Win32,59.93407252,,,,,,,,,,,,,,right,0.8684,Lively,Overestimator,Underestimator,Underestimator,1,0,112,112,70,1
,,,,,,,,,,Democratic,29,59066,2022-05-01_14h37.51.424,SelfAnchoring,2021.2.3,Win32,59.93407252,,,,,,,,,,,,,,left,2.9821,Democratic,Overestimator,Underestimator,Overestimator,2,0,113,113,28,1
,,,,,,,,,,Self-controlled,113,59066,2022-05-01_14h37.51.424,SelfAnchoring,2021.2.3,Win32,59.93407252,,,,,,,,,,,,,,right,1.4977,Self-controlled,Overestimator,Underestimator,Underestimator,1,0,114,114,112,1
,,,,,,,,,,Well-mannered,143,59066,2022-05-01_14h37.51.424,SelfAnchoring,2021.2.3,Win32,59.93407252,,,,,,,,,,,,,,right,1.0331,Well-mannered,Overestimator,Underestimator,Underestimator,1,0,115,115,142,1
,,,,,,,,,,Sentimental,117,59066,2022-05-01_14h37.51.424,SelfAnchoring,2021.2.3,Win32,59.93407252,,,,,,,,,,,,,,left,0.5472,Sentimental,Overestimator,Underestimator,Overestimator,2,0,116,116,116,1
,,,,,,,,,,Respectable,109,59066,2022-05-01_14h37.51.424,SelfAnchoring,2021.2.3,Win32,59.93407252,,,,,,,,,,,,,,left,0.9532,Respectable,Overestimator,Underestimator,Overestimator,2,0,117,117,108,1
,,,,,,,,,,Good-humored,54,59066,2022-05-01_14h37.51.424,SelfAnchoring,2021.2.3,Win32,59.93407252,,,,,,,,,,,,,,left,2.5013,Good-humored,Overestimator,Underestimator,Overestimator,2,0,118,118,53,1
,,,,,,,,,,Flexible,43,59066,2022-05-01_14h37.51.424,SelfAnchoring,2021.2.3,Win32,59.93407252,,,,,,,,,,,,,,left,3.9813,Flexible,Overestimator,Underestimator,Overestimator,2,0,119,119,42,1
,,,,,,,,,,Charming,7,59066,2022-05-01_14h37.51.424,SelfAnchoring,2021.2.3,Win32,59.93407252,,,,,,,,,,,,,,right,1.3876,Charming,Overestimator,Underestimator,Underestimator,1,0,120,120,6,1
,,,,,,,,,,Confident,17,59066,2022-05-01_14h37.51.424,SelfAnchoring,2021.2.3,Win32,59.93407252,,,,,,,,,,,,,,left,1.8589,Confident,Overestimator,Underestimator,Overestimator,2,0,121,121,16,1
,,,,,,,,,,Respectful,110,59066,2022-05-01_14h37.51.424,SelfAnchoring,2021.2.3,Win32,59.93407252,,,,,,,,,,,,,,left,1.3012,Respectful,Overestimator,Underestimator,Overestimator,2,0,122,122,109,1
,,,,,,,,,,Sophisticated,122,59066,2022-05-01_14h37.51.424,SelfAnchoring,2021.2.3,Win32,59.93407252,,,,,,,,,,,,,,left,13.3431,Sophisticated,Overestimator,Underestimator,Overestimator,2,0,123,123,121,1
,,,,,,,,,,Persevering,91,59066,2022-05-01_14h37.51.424,SelfAnchoring,2021.2.3,Win32,59.93407252,,,,,,,,,,,,,,left,0.004,Persevering,Overestimator,Underestimator,Overestimator,2,0,124,124,90,1
,,,,,,,,,,Refined,107,59066,2022-05-01_14h37.51.424,SelfAnchoring,2021.2.3,Win32,59.93407252,,,,,,,,,,,,,,left,1.0807,Refined,Overestimator,Underestimator,Overestimator,2,0,125,125,106,1
,,,,,,,,,,Outspoken,87,59066,2022-05-01_14h37.51.424,SelfAnchoring,2021.2.3,Win32,59.93407252,,,,,,,,,,,,,,left,0.8168,Outspoken,Overestimator,Underestimator,Overestimator,2,0,126,126,86,1
,,,,,,,,,,Punctual,101,59066,2022-05-01_14h37.51.424,SelfAnchoring,2021.2.3,Win32,59.93407252,,,,,,,,,,,,,,left,0.649,Punctual,Overestimator,Underestimator,Overestimator,2,0,127,127,100,1
,,,,,,,,,,Unafraid,132,59066,2022-05-01_14h37.51.424,SelfAnchoring,2021.2.3,Win32,59.93407252,,,,,,,,,,,,,,left,0.9522,Unafraid,Overestimator,Underestimator,Overestimator,2,0,128,128,131,1
,,,,,,,,,,Enthusiastic,36,59066,2022-05-01_14h37.51.424,SelfAnchoring,2021.2.3,Win32,59.93407252,,,,,,,,,,,,,,left,1.2011,Enthusiastic,Overestimator,Underestimator,Overestimator,2,0,129,129,35,1
,,,,,,,,,,Conscientious,18,59066,2022-05-01_14h37.51.424,SelfAnchoring,2021.2.3,Win32,59.93407252,,,,,,,,,,,,,,left,0.9144,Conscientious,Overestimator,Underestimator,Overestimator,2,0,130,130,17,1
,,,,,,,,,,Fun,47,59066,2022-05-01_14h37.51.424,SelfAnchoring,2021.2.3,Win32,59.93407252,,,,,,,,,,,,,,left,0.6869,Fun,Overestimator,Underestimator,Overestimator,2,0,131,131,46,1
,,,,,,,,,,Helpful,59,59066,2022-05-01_14h37.51.424,SelfAnchoring,2021.2.3,Win32,59.93407252,,,,,,,,,,,,,,right,1.5505,Helpful,Overestimator,Underestimator,Underestimator,1,0,132,132,58,1
,,,,,,,,,,Well-spoken,146,59066,2022-05-01_14h37.51.424,SelfAnchoring,2021.2.3,Win32,59.93407252,,,,,,,,,,,,,,left,0.2728,Well-spoken,Overestimator,Underestimator,Overestimator,2,0,133,133,145,1
,,,,,,,,,,Casual,5,59066,2022-05-01_14h37.51.424,SelfAnchoring,2021.2.3,Win32,59.93407252,,,,,,,,,,,,,,left,0.7343,Casual,Overestimator,Underestimator,Overestimator,2,0,134,134,4,1
,,,,,,,,,,Benevolent,2,59066,2022-05-01_14h37.51.424,SelfAnchoring,2021.2.3,Win32,59.93407252,,,,,,,,,,,,,,left,0.6836,Benevolent,Overestimator,Underestimator,Overestimator,2,0,135,135,1,1
,,,,,,,,,,Dedicated,25,59066,2022-05-01_14h37.51.424,SelfAnchoring,2021.2.3,Win32,59.93407252,,,,,,,,,,,,,,left,0.742,Dedicated,Overestimator,Underestimator,Overestimator,2,0,136,136,24,1
,,,,,,,,,,Realistic,106,59066,2022-05-01_14h37.51.424,SelfAnchoring,2021.2.3,Win32,59.93407252,,,,,,,,,,,,,,left,0.7751,Realistic,Overestimator,Underestimator,Overestimator,2,0,137,137,105,1
,,,,,,,,,,Neat,79,59066,2022-05-01_14h37.51.424,SelfAnchoring,2021.2.3,Win32,59.93407252,,,,,,,,,,,,,,left,3.4371,Neat,Overestimator,Underestimator,Overestimator,2,0,138,138,78,1
,,,,,,,,,,Unassuming,133,59066,2022-05-01_14h37.51.424,SelfAnchoring,2021.2.3,Win32,59.93407252,,,,,,,,,,,,,,right,2.8903,Unassuming,Overestimator,Underestimator,Underestimator,1,0,139,139,132,1
,,,,,,,,,,Sensitive,116,59066,2022-05-01_14h37.51.424,SelfAnchoring,2021.2.3,Win32,59.93407252,,,,,,,,,,,,,,right,1.13,Sensitive,Overestimator,Underestimator,Underestimator,1,0,140,140,115,1
,,,,,,,,,,Studious,126,59066,2022-05-01_14h37.51.424,SelfAnchoring,2021.2.3,Win32,59.93407252,,,,,,,,,,,,,,left,1.1286,Studious,Overestimator,Underestimator,Overestimator,2,0,141,141,125,1
,,,,,,,,,,Graceful,57,59066,2022-05-01_14h37.51.424,SelfAnchoring,2021.2.3,Win32,59.93407252,,,,,,,,,,,,,,left,1.0747,Graceful,Overestimator,Underestimator,Overestimator,2,0,142,142,56,1
,,,,,,,,,,Fair,40,59066,2022-05-01_14h37.51.424,SelfAnchoring,2021.2.3,Win32,59.93407252,,,,,,,,,,,,,,right,0.7943,Fair,Overestimator,Underestimator,Underestimator,1,0,143,143,39,1
,,,,,,,,,,Thoughtful,129,59066,2022-05-01_14h37.51.424,SelfAnchoring,2021.2.3,Win32,59.93407252,,,,,,,,,,,,,,right,0.3249,Thoughtful,Overestimator,Underestimator,Underestimator,1,0,144,144,128,1
,,,,,,,,,,Eager,33,59066,2022-05-01_14h37.51.424,SelfAnchoring,2021.2.3,Win32,59.93407252,,,,,,,,,,,,,,right,0.7159,Eager,Overestimator,Underestimator,Underestimator,1,0,145,145,32,1
,,,,,,,,,,Well-read,145,59066,2022-05-01_14h37.51.424,SelfAnchoring,2021.2.3,Win32,59.93407252,,,,,,,,,,,,,,left,0.924,Well-read,Overestimator,Underestimator,Overestimator,2,0,146,146,144,1
,,,,,,,,,,Open-minded,82,59066,2022-05-01_14h37.51.424,SelfAnchoring,2021.2.3,Win32,59.93407252,,,,,,,,,,,,,,right,0.9719,Open-minded,Overestimator,Underestimator,Underestimator,1,0,147,147,81,1
