Estimator,toCont.keys,toCont.rt,SE.keys,SE.rt,trials_2.thisRepN,trials_2.thisTrialN,trials_2.thisN,trials_2.thisIndex,trials_2.ran,trait,Idx,participant,date,expName,psychopyVersion,OS,frameRate,toCont_2.keys,toCont_2.rt,EnterGuess.text,Guess,dotestLoop.thisRepN,dotestLoop.thisTrialN,dotestLoop.thisN,dotestLoop.thisIndex,dotestLoop.ran,dp,Confirm2.text,toCont_3.keys,toCont_3.rt,resp.keys,resp.rt,traitC,optionLeft,optionRight,optionChoice,choiceResp,choices.thisRepN,choices.thisTrialN,choices.thisN,choices.thisIndex,choices.ran
Overestimator,space,24.5487,7,7.6861,0,0,0,72,1,Understanding,134,59198,2022-05-02_09h26.57.388,SelfAnchoring,2021.2.3,Win32,60.11060351,,,,,,,,,,,,,,,,,,,,,,,,,
,,,6,6.0757,0,1,1,71,1,Contemplative,21,59198,2022-05-02_09h26.57.388,SelfAnchoring,2021.2.3,Win32,60.11060351,,,,,,,,,,,,,,,,,,,,,,,,,
,,,4,5.9504,0,2,2,26,1,Lenient,69,59198,2022-05-02_09h26.57.388,SelfAnchoring,2021.2.3,Win32,60.11060351,,,,,,,,,,,,,,,,,,,,,,,,,
,,,5,2.5823,0,3,3,48,1,Flexible,43,59198,2022-05-02_09h26.57.388,SelfAnchoring,2021.2.3,Win32,60.11060351,,,,,,,,,,,,,,,,,,,,,,,,,
,,,4,11.8333,0,4,4,77,1,Unprejudiced,136,59198,2022-05-02_09h26.57.388,SelfAnchoring,2021.2.3,Win32,60.11060351,,,,,,,,,,,,,,,,,,,,,,,,,
,,,6,5.9406,0,5,5,52,1,Nice,80,59198,2022-05-02_09h26.57.388,SelfAnchoring,2021.2.3,Win32,60.11060351,,,,,,,,,,,,,,,,,,,,,,,,,
,,,5,2.9547,0,6,6,62,1,Outgoing,86,59198,2022-05-02_09h26.57.388,SelfAnchoring,2021.2.3,Win32,60.11060351,,,,,,,,,,,,,,,,,,,,,,,,,
,,,7,2.7935,0,7,7,69,1,Persevering,91,59198,2022-05-02_09h26.57.388,SelfAnchoring,2021.2.3,Win32,60.11060351,,,,,,,,,,,,,,,,,,,,,,,,,
,,,4,7.0411,0,8,8,15,1,Deliberate,27,59198,2022-05-02_09h26.57.388,SelfAnchoring,2021.2.3,Win32,60.11060351,,,,,,,,,,,,,,,,,,,,,,,,,
,,,5,6.4684,0,9,9,65,1,Versatile,141,59198,2022-05-02_09h26.57.388,SelfAnchoring,2021.2.3,Win32,60.11060351,,,,,,,,,,,,,,,,,,,,,,,,,
,,,5,2.2656,0,10,10,83,1,Knowledgeable,68,59198,2022-05-02_09h26.57.388,SelfAnchoring,2021.2.3,Win32,60.11060351,,,,,,,,,,,,,,,,,,,,,,,,,
,,,5,4.9003,0,11,11,29,1,Generous,49,59198,2022-05-02_09h26.57.388,SelfAnchoring,2021.2.3,Win32,60.11060351,,,,,,,,,,,,,,,,,,,,,,,,,
,,,5,6.4001,0,12,12,51,1,Tough,131,59198,2022-05-02_09h26.57.388,SelfAnchoring,2021.2.3,Win32,60.11060351,,,,,,,,,,,,,,,,,,,,,,,,,
,,,7,5.2788,0,13,13,36,1,Respectful,110,59198,2022-05-02_09h26.57.388,SelfAnchoring,2021.2.3,Win32,60.11060351,,,,,,,,,,,,,,,,,,,,,,,,,
,,,4,6.4234,0,14,14,73,1,Experienced,38,59198,2022-05-02_09h26.57.388,SelfAnchoring,2021.2.3,Win32,60.11060351,,,,,,,,,,,,,,,,,,,,,,,,,
,,,2,3.55,0,15,15,50,1,Untiring,139,59198,2022-05-02_09h26.57.388,SelfAnchoring,2021.2.3,Win32,60.11060351,,,,,,,,,,,,,,,,,,,,,,,,,
,,,2,2.1949,0,16,16,28,1,Self-sufficient,115,59198,2022-05-02_09h26.57.388,SelfAnchoring,2021.2.3,Win32,60.11060351,,,,,,,,,,,,,,,,,,,,,,,,,
,,,1,3.88,0,17,17,55,1,Clean-cut,9,59198,2022-05-02_09h26.57.388,SelfAnchoring,2021.2.3,Win32,60.11060351,,,,,,,,,,,,,,,,,,,,,,,,,
,,,3,3.9326,0,18,18,34,1,Steady,124,59198,2022-05-02_09h26.57.388,SelfAnchoring,2021.2.3,Win32,60.11060351,,,,,,,,,,,,,,,,,,,,,,,,,
,,,3,4.4313,0,19,19,11,1,Well-read,145,59198,2022-05-02_09h26.57.388,SelfAnchoring,2021.2.3,Win32,60.11060351,,,,,,,,,,,,,,,,,,,,,,,,,
,,,space,15.4911,0,20,20,12,1,Constructive,20,59198,2022-05-02_09h26.57.388,SelfAnchoring,2021.2.3,Win32,60.11060351,,,,,,,,,,,,,,,,,,,,,,,,,
,,,6,12.0914,0,21,21,75,1,Rational,105,59198,2022-05-02_09h26.57.388,SelfAnchoring,2021.2.3,Win32,60.11060351,,,,,,,,,,,,,,,,,,,,,,,,,
,,,5,8.1479,0,22,22,58,1,Prideful,98,59198,2022-05-02_09h26.57.388,SelfAnchoring,2021.2.3,Win32,60.11060351,,,,,,,,,,,,,,,,,,,,,,,,,
,,,5,7.4814,0,23,23,1,1,Gentle,50,59198,2022-05-02_09h26.57.388,SelfAnchoring,2021.2.3,Win32,60.11060351,,,,,,,,,,,,,,,,,,,,,,,,,
,,,7,2.7849,0,24,24,43,1,Economical,34,59198,2022-05-02_09h26.57.388,SelfAnchoring,2021.2.3,Win32,60.11060351,,,,,,,,,,,,,,,,,,,,,,,,,
,,,4,4.6517,0,25,25,81,1,Calm,3,59198,2022-05-02_09h26.57.388,SelfAnchoring,2021.2.3,Win32,60.11060351,,,,,,,,,,,,,,,,,,,,,,,,,
,,,5,6.4228,0,26,26,85,1,Reserved,108,59198,2022-05-02_09h26.57.388,SelfAnchoring,2021.2.3,Win32,60.11060351,,,,,,,,,,,,,,,,,,,,,,,,,
,,,5,6.1669,0,27,27,14,1,Benevolent,2,59198,2022-05-02_09h26.57.388,SelfAnchoring,2021.2.3,Win32,60.11060351,,,,,,,,,,,,,,,,,,,,,,,,,
,,,5,5.8127,0,28,28,79,1,Well-mannered,143,59198,2022-05-02_09h26.57.388,SelfAnchoring,2021.2.3,Win32,60.11060351,,,,,,,,,,,,,,,,,,,,,,,,,
,,,6,5.7395,0,29,29,0,1,Humble,62,59198,2022-05-02_09h26.57.388,SelfAnchoring,2021.2.3,Win32,60.11060351,,,,,,,,,,,,,,,,,,,,,,,,,
,,,6,1.9593,0,30,30,6,1,Thoughtful,129,59198,2022-05-02_09h26.57.388,SelfAnchoring,2021.2.3,Win32,60.11060351,,,,,,,,,,,,,,,,,,,,,,,,,
,,,4,2.4763,0,31,31,82,1,Positive,95,59198,2022-05-02_09h26.57.388,SelfAnchoring,2021.2.3,Win32,60.11060351,,,,,,,,,,,,,,,,,,,,,,,,,
,,,5,7.0484,0,32,32,25,1,Cordial,23,59198,2022-05-02_09h26.57.388,SelfAnchoring,2021.2.3,Win32,60.11060351,,,,,,,,,,,,,,,,,,,,,,,,,
,,,5,3.0394,0,33,33,31,1,Prudent,100,59198,2022-05-02_09h26.57.388,SelfAnchoring,2021.2.3,Win32,60.11060351,,,,,,,,,,,,,,,,,,,,,,,,,
,,,3,3.423,0,34,34,60,1,Extraverted,39,59198,2022-05-02_09h26.57.388,SelfAnchoring,2021.2.3,Win32,60.11060351,,,,,,,,,,,,,,,,,,,,,,,,,
,,,4,4.5154,0,35,35,68,1,Capable,4,59198,2022-05-02_09h26.57.388,SelfAnchoring,2021.2.3,Win32,60.11060351,,,,,,,,,,,,,,,,,,,,,,,,,
,,,4,6.0177,0,36,36,33,1,Unpretentious,137,59198,2022-05-02_09h26.57.388,SelfAnchoring,2021.2.3,Win32,60.11060351,,,,,,,,,,,,,,,,,,,,,,,,,
,,,space,18.8122,0,37,37,30,1,Practical,96,59198,2022-05-02_09h26.57.388,SelfAnchoring,2021.2.3,Win32,60.11060351,,,,,,,,,,,,,,,,,,,,,,,,,
,,,4,5.4297,0,38,38,38,1,Good-tempered,56,59198,2022-05-02_09h26.57.388,SelfAnchoring,2021.2.3,Win32,60.11060351,,,,,,,,,,,,,,,,,,,,,,,,,
,,,5,5.4128,0,39,39,37,1,Lucky,73,59198,2022-05-02_09h26.57.388,SelfAnchoring,2021.2.3,Win32,60.11060351,,,,,,,,,,,,,,,,,,,,,,,,,
,,,3,4.6236,0,40,40,32,1,Peaceful,89,59198,2022-05-02_09h26.57.388,SelfAnchoring,2021.2.3,Win32,60.11060351,,,,,,,,,,,,,,,,,,,,,,,,,
,,,5,4.246,0,41,41,10,1,Giving,51,59198,2022-05-02_09h26.57.388,SelfAnchoring,2021.2.3,Win32,60.11060351,,,,,,,,,,,,,,,,,,,,,,,,,
,,,5,3.3365,0,42,42,59,1,Perfectionistic,90,59198,2022-05-02_09h26.57.388,SelfAnchoring,2021.2.3,Win32,60.11060351,,,,,,,,,,,,,,,,,,,,,,,,,
,,,4,3.2566,0,43,43,18,1,Clever,11,59198,2022-05-02_09h26.57.388,SelfAnchoring,2021.2.3,Win32,60.11060351,,,,,,,,,,,,,,,,,,,,,,,,,
,,,5,5.6202,0,44,44,67,1,Deep,26,59198,2022-05-02_09h26.57.388,SelfAnchoring,2021.2.3,Win32,60.11060351,,,,,,,,,,,,,,,,,,,,,,,,,
,,,2,6.3222,0,45,45,20,1,Delicate,28,59198,2022-05-02_09h26.57.388,SelfAnchoring,2021.2.3,Win32,60.11060351,,,,,,,,,,,,,,,,,,,,,,,,,
,,,2,6.6745,0,46,46,78,1,Polished,94,59198,2022-05-02_09h26.57.388,SelfAnchoring,2021.2.3,Win32,60.11060351,,,,,,,,,,,,,,,,,,,,,,,,,
,,,7,6.415,0,47,47,41,1,Persistent,92,59198,2022-05-02_09h26.57.388,SelfAnchoring,2021.2.3,Win32,60.11060351,,,,,,,,,,,,,,,,,,,,,,,,,
,,,5,5.0215,0,48,48,16,1,Cooperative,22,59198,2022-05-02_09h26.57.388,SelfAnchoring,2021.2.3,Win32,60.11060351,,,,,,,,,,,,,,,,,,,,,,,,,
,,,5,3.1748,0,49,49,87,1,Sociable,121,59198,2022-05-02_09h26.57.388,SelfAnchoring,2021.2.3,Win32,60.11060351,,,,,,,,,,,,,,,,,,,,,,,,,
,,,4,2.7647,0,50,50,61,1,Talkative,128,59198,2022-05-02_09h26.57.388,SelfAnchoring,2021.2.3,Win32,60.11060351,,,,,,,,,,,,,,,,,,,,,,,,,
,,,5,4.42,0,51,51,86,1,Healthy,58,59198,2022-05-02_09h26.57.388,SelfAnchoring,2021.2.3,Win32,60.11060351,,,,,,,,,,,,,,,,,,,,,,,,,
,,,7,7.3273,0,52,52,53,1,Open-minded,82,59198,2022-05-02_09h26.57.388,SelfAnchoring,2021.2.3,Win32,60.11060351,,,,,,,,,,,,,,,,,,,,,,,,,
,,,5,5.7968,0,53,53,22,1,Skillful,119,59198,2022-05-02_09h26.57.388,SelfAnchoring,2021.2.3,Win32,60.11060351,,,,,,,,,,,,,,,,,,,,,,,,,
,,,3,6.7138,0,54,54,9,1,Dignified,31,59198,2022-05-02_09h26.57.388,SelfAnchoring,2021.2.3,Win32,60.11060351,,,,,,,,,,,,,,,,,,,,,,,,,
,,,7,3.6912,0,55,55,19,1,Clean,8,59198,2022-05-02_09h26.57.388,SelfAnchoring,2021.2.3,Win32,60.11060351,,,,,,,,,,,,,,,,,,,,,,,,,
,,,6,3.9301,0,56,56,44,1,Good,53,59198,2022-05-02_09h26.57.388,SelfAnchoring,2021.2.3,Win32,60.11060351,,,,,,,,,,,,,,,,,,,,,,,,,
,,,5,4.2433,0,57,57,74,1,Enthusiastic,36,59198,2022-05-02_09h26.57.388,SelfAnchoring,2021.2.3,Win32,60.11060351,,,,,,,,,,,,,,,,,,,,,,,,,
,,,4,8.2962,0,58,58,17,1,Normal,81,59198,2022-05-02_09h26.57.388,SelfAnchoring,2021.2.3,Win32,60.11060351,,,,,,,,,,,,,,,,,,,,,,,,,
,,,4,15.28,0,59,59,63,1,Foresighted,44,59198,2022-05-02_09h26.57.388,SelfAnchoring,2021.2.3,Win32,60.11060351,,,,,,,,,,,,,,,,,,,,,,,,,
,,,5,2.4327,0,60,60,70,1,Witty,148,59198,2022-05-02_09h26.57.388,SelfAnchoring,2021.2.3,Win32,60.11060351,,,,,,,,,,,,,,,,,,,,,,,,,
,,,5,7.3334,0,61,61,45,1,Conscientious,18,59198,2022-05-02_09h26.57.388,SelfAnchoring,2021.2.3,Win32,60.11060351,,,,,,,,,,,,,,,,,,,,,,,,,
,,,3,5.8321,0,62,62,21,1,Verbal,140,59198,2022-05-02_09h26.57.388,SelfAnchoring,2021.2.3,Win32,60.11060351,,,,,,,,,,,,,,,,,,,,,,,,,
,,,4,2.6973,0,63,63,84,1,Well-organized,144,59198,2022-05-02_09h26.57.388,SelfAnchoring,2021.2.3,Win32,60.11060351,,,,,,,,,,,,,,,,,,,,,,,,,
,,,4,6.6212,0,64,64,7,1,Sophisticated,122,59198,2022-05-02_09h26.57.388,SelfAnchoring,2021.2.3,Win32,60.11060351,,,,,,,,,,,,,,,,,,,,,,,,,
,,,6,5.3217,0,65,65,8,1,Disciplined,32,59198,2022-05-02_09h26.57.388,SelfAnchoring,2021.2.3,Win32,60.11060351,,,,,,,,,,,,,,,,,,,,,,,,,
,,,6,1.8714,0,66,66,64,1,Friendly,46,59198,2022-05-02_09h26.57.388,SelfAnchoring,2021.2.3,Win32,60.11060351,,,,,,,,,,,,,,,,,,,,,,,,,
,,,6,3.8489,0,67,67,66,1,Democratic,29,59198,2022-05-02_09h26.57.388,SelfAnchoring,2021.2.3,Win32,60.11060351,,,,,,,,,,,,,,,,,,,,,,,,,
,,,6,5.8833,0,68,68,57,1,Modern,76,59198,2022-05-02_09h26.57.388,SelfAnchoring,2021.2.3,Win32,60.11060351,,,,,,,,,,,,,,,,,,,,,,,,,
,,,6,2.237,0,69,69,49,1,Loyal,72,59198,2022-05-02_09h26.57.388,SelfAnchoring,2021.2.3,Win32,60.11060351,,,,,,,,,,,,,,,,,,,,,,,,,
,,,5,10.7662,0,70,70,47,1,Unselfish,138,59198,2022-05-02_09h26.57.388,SelfAnchoring,2021.2.3,Win32,60.11060351,,,,,,,,,,,,,,,,,,,,,,,,,
,,,5,5.9151,0,71,71,4,1,Level-headed,70,59198,2022-05-02_09h26.57.388,SelfAnchoring,2021.2.3,Win32,60.11060351,,,,,,,,,,,,,,,,,,,,,,,,,
,,,5,3.865,0,72,72,3,1,Fearless,42,59198,2022-05-02_09h26.57.388,SelfAnchoring,2021.2.3,Win32,60.11060351,,,,,,,,,,,,,,,,,,,,,,,,,
,,,5,4.0241,0,73,73,39,1,Eager,33,59198,2022-05-02_09h26.57.388,SelfAnchoring,2021.2.3,Win32,60.11060351,,,,,,,,,,,,,,,,,,,,,,,,,
,,,5,5.5476,0,74,74,56,1,Casual,5,59198,2022-05-02_09h26.57.388,SelfAnchoring,2021.2.3,Win32,60.11060351,,,,,,,,,,,,,,,,,,,,,,,,,
,,,6,3.0888,0,75,75,42,1,Compassionate,14,59198,2022-05-02_09h26.57.388,SelfAnchoring,2021.2.3,Win32,60.11060351,,,,,,,,,,,,,,,,,,,,,,,,,
,,,6,1.7741,0,76,76,35,1,Sentimental,117,59198,2022-05-02_09h26.57.388,SelfAnchoring,2021.2.3,Win32,60.11060351,,,,,,,,,,,,,,,,,,,,,,,,,
,,,6,2.0358,0,77,77,27,1,Scientific,112,59198,2022-05-02_09h26.57.388,SelfAnchoring,2021.2.3,Win32,60.11060351,,,,,,,,,,,,,,,,,,,,,,,,,
,,,6,2.6372,0,78,78,54,1,Mature,75,59198,2022-05-02_09h26.57.388,SelfAnchoring,2021.2.3,Win32,60.11060351,,,,,,,,,,,,,,,,,,,,,,,,,
,,,5,1.7135,0,79,79,2,1,Wise,147,59198,2022-05-02_09h26.57.388,SelfAnchoring,2021.2.3,Win32,60.11060351,,,,,,,,,,,,,,,,,,,,,,,,,
,,,4,6.8707,0,80,80,40,1,Lively,71,59198,2022-05-02_09h26.57.388,SelfAnchoring,2021.2.3,Win32,60.11060351,,,,,,,,,,,,,,,,,,,,,,,,,
,,,4,3.4944,0,81,81,23,1,Quiet,104,59198,2022-05-02_09h26.57.388,SelfAnchoring,2021.2.3,Win32,60.11060351,,,,,,,,,,,,,,,,,,,,,,,,,
,,,4,5.4636,0,82,82,46,1,Thrifty,130,59198,2022-05-02_09h26.57.388,SelfAnchoring,2021.2.3,Win32,60.11060351,,,,,,,,,,,,,,,,,,,,,,,,,
,,,2,4.7802,0,83,83,80,1,Unenvious,135,59198,2022-05-02_09h26.57.388,SelfAnchoring,2021.2.3,Win32,60.11060351,,,,,,,,,,,,,,,,,,,,,,,,,
,,,5,5.039,0,84,84,5,1,Inquisitive,66,59198,2022-05-02_09h26.57.388,SelfAnchoring,2021.2.3,Win32,60.11060351,,,,,,,,,,,,,,,,,,,,,,,,,
,,,3,5.0323,0,85,85,76,1,Innocent,65,59198,2022-05-02_09h26.57.388,SelfAnchoring,2021.2.3,Win32,60.11060351,,,,,,,,,,,,,,,,,,,,,,,,,
,,,4,7.4798,0,86,86,89,1,Optimistic,83,59198,2022-05-02_09h26.57.388,SelfAnchoring,2021.2.3,Win32,60.11060351,,,,,,,,,,,,,,,,,,,,,,,,,
,,,4,12.329,0,87,87,88,1,Accurate,1,59198,2022-05-02_09h26.57.388,SelfAnchoring,2021.2.3,Win32,60.11060351,,,,,,,,,,,,,,,,,,,,,,,,,
,,,4,6.0166,0,88,88,13,1,Courageous,24,59198,2022-05-02_09h26.57.388,SelfAnchoring,2021.2.3,Win32,60.11060351,,,,,,,,,,,,,,,,,,,,,,,,,
,,,4,5.1999,0,89,89,24,1,Quick-witted,103,59198,2022-05-02_09h26.57.388,SelfAnchoring,2021.2.3,Win32,60.11060351,,,,,,,,,,,,,,,,,,,,,,,,,
,,,,,,,,,,,,59198,2022-05-02_09h26.57.388,SelfAnchoring,2021.2.3,Win32,60.11060351,space,21.249,8,,0,0,0,3,1,plot4.jpg,,,,,,,,,,,,,,,
,,,,,,,,,,,,59198,2022-05-02_09h26.57.388,SelfAnchoring,2021.2.3,Win32,60.11060351,,,35,,0,1,1,1,1,plot2.jpg,,,,,,,,,,,,,,,
,,,,,,,,,,,,59198,2022-05-02_09h26.57.388,SelfAnchoring,2021.2.3,Win32,60.11060351,,,45,,0,2,2,0,1,plot1.jpg,,,,,,,,,,,,,,,
,,,,,,,,,,,,59198,2022-05-02_09h26.57.388,SelfAnchoring,2021.2.3,Win32,60.11060351,,,20,,0,3,3,6,1,plot7.jpg,,,,,,,,,,,,,,,
,,,,,,,,,,,,59198,2022-05-02_09h26.57.388,SelfAnchoring,2021.2.3,Win32,60.11060351,,,2,,0,4,4,8,1,plot9.jpg,,,,,,,,,,,,,,,
,,,,,,,,,,,,59198,2022-05-02_09h26.57.388,SelfAnchoring,2021.2.3,Win32,60.11060351,,,30,,0,5,5,5,1,plot6.jpg,,,,,,,,,,,,,,,
,,,,,,,,,,,,59198,2022-05-02_09h26.57.388,SelfAnchoring,2021.2.3,Win32,60.11060351,,,1,,0,6,6,9,1,plot10.jpg,,,,,,,,,,,,,,,
,,,,,,,,,,,,59198,2022-05-02_09h26.57.388,SelfAnchoring,2021.2.3,Win32,60.11060351,,,40,,0,7,7,7,1,plot8.jpg,,,,,,,,,,,,,,,
,,,,,,,,,,,,59198,2022-05-02_09h26.57.388,SelfAnchoring,2021.2.3,Win32,60.11060351,,,32,,0,8,8,2,1,plot3.jpg,,,,,,,,,,,,,,,
,,,,,,,,,,,,59198,2022-05-02_09h26.57.388,SelfAnchoring,2021.2.3,Win32,60.11060351,,,50,,0,9,9,4,1,plot5.jpg,,,,,,,,,,,,,,,
,,,,,,,,,,Straightforward,125,59198,2022-05-02_09h26.57.388,SelfAnchoring,2021.2.3,Win32,60.11060351,,,,,,,,,,,I am a Overestimator,space,31.6083,right,7.3736,Straightforward,Overestimator,Underestimator,Underestimator,1,0,0,0,124,1
,,,,,,,,,,Well-spoken,146,59198,2022-05-02_09h26.57.388,SelfAnchoring,2021.2.3,Win32,60.11060351,,,,,,,,,,,,,,left,15.7654,Well-spoken,Overestimator,Underestimator,Overestimator,2,0,1,1,145,1
,,,,,,,,,,Communicative,13,59198,2022-05-02_09h26.57.388,SelfAnchoring,2021.2.3,Win32,60.11060351,,,,,,,,,,,,,,left,5.6891,Communicative,Overestimator,Underestimator,Overestimator,2,0,2,2,12,1
,,,,,,,,,,Sensitive,116,59198,2022-05-02_09h26.57.388,SelfAnchoring,2021.2.3,Win32,60.11060351,,,,,,,,,,,,,,left,8.6141,Sensitive,Overestimator,Underestimator,Overestimator,2,0,3,3,115,1
,,,,,,,,,,Eager,33,59198,2022-05-02_09h26.57.388,SelfAnchoring,2021.2.3,Win32,60.11060351,,,,,,,,,,,,,,left,13.9617,Eager,Overestimator,Underestimator,Overestimator,2,0,4,4,32,1
,,,,,,,,,,Fun,47,59198,2022-05-02_09h26.57.388,SelfAnchoring,2021.2.3,Win32,60.11060351,,,,,,,,,,,,,,right,4.8666,Fun,Overestimator,Underestimator,Underestimator,1,0,5,5,46,1
,,,,,,,,,,Persistent,92,59198,2022-05-02_09h26.57.388,SelfAnchoring,2021.2.3,Win32,60.11060351,,,,,,,,,,,,,,right,5.6288,Persistent,Overestimator,Underestimator,Underestimator,1,0,6,6,91,1
,,,,,,,,,,Generous,49,59198,2022-05-02_09h26.57.388,SelfAnchoring,2021.2.3,Win32,60.11060351,,,,,,,,,,,,,,left,6.4173,Generous,Overestimator,Underestimator,Overestimator,2,0,7,7,48,1
,,,,,,,,,,Unpretentious,137,59198,2022-05-02_09h26.57.388,SelfAnchoring,2021.2.3,Win32,60.11060351,,,,,,,,,,,,,,right,2.1747,Unpretentious,Overestimator,Underestimator,Underestimator,1,0,8,8,136,1
,,,,,,,,,,Unprejudiced,136,59198,2022-05-02_09h26.57.388,SelfAnchoring,2021.2.3,Win32,60.11060351,,,,,,,,,,,,,,right,3.6225,Unprejudiced,Overestimator,Underestimator,Underestimator,1,0,9,9,135,1
,,,,,,,,,,Moral,77,59198,2022-05-02_09h26.57.388,SelfAnchoring,2021.2.3,Win32,60.11060351,,,,,,,,,,,,,,right,5.1375,Moral,Overestimator,Underestimator,Underestimator,1,0,10,10,76,1
,,,,,,,,,,Wise,147,59198,2022-05-02_09h26.57.388,SelfAnchoring,2021.2.3,Win32,60.11060351,,,,,,,,,,,,,,right,6.5806,Wise,Overestimator,Underestimator,Underestimator,1,0,11,11,146,1
,,,,,,,,,,Thrifty,130,59198,2022-05-02_09h26.57.388,SelfAnchoring,2021.2.3,Win32,60.11060351,,,,,,,,,,,,,,right,1.7953,Thrifty,Overestimator,Underestimator,Underestimator,1,0,12,12,129,1
,,,,,,,,,,Deep,26,59198,2022-05-02_09h26.57.388,SelfAnchoring,2021.2.3,Win32,60.11060351,,,,,,,,,,,,,,right,4.4375,Deep,Overestimator,Underestimator,Underestimator,1,0,13,13,25,1
,,,,,,,,,,Democratic,29,59198,2022-05-02_09h26.57.388,SelfAnchoring,2021.2.3,Win32,60.11060351,,,,,,,,,,,,,,left,3.9882,Democratic,Overestimator,Underestimator,Overestimator,2,0,14,14,28,1
,,,,,,,,,,Natural,78,59198,2022-05-02_09h26.57.388,SelfAnchoring,2021.2.3,Win32,60.11060351,,,,,,,,,,,,,,right,1.4298,Natural,Overestimator,Underestimator,Underestimator,1,0,15,15,77,1
,,,,,,,,,,Talkative,128,59198,2022-05-02_09h26.57.388,SelfAnchoring,2021.2.3,Win32,60.11060351,,,,,,,,,,,,,,left,1.2056,Talkative,Overestimator,Underestimator,Overestimator,2,0,16,16,127,1
,,,,,,,,,,Dependable,30,59198,2022-05-02_09h26.57.388,SelfAnchoring,2021.2.3,Win32,60.11060351,,,,,,,,,,,,,,right,1.9804,Dependable,Overestimator,Underestimator,Underestimator,1,0,17,17,29,1
,,,,,,,,,,Compassionate,14,59198,2022-05-02_09h26.57.388,SelfAnchoring,2021.2.3,Win32,60.11060351,,,,,,,,,,,,,,left,5.656,Compassionate,Overestimator,Underestimator,Overestimator,2,0,18,18,13,1
,,,,,,,,,,Helpful,59,59198,2022-05-02_09h26.57.388,SelfAnchoring,2021.2.3,Win32,60.11060351,,,,,,,,,,,,,,right,5.2692,Helpful,Overestimator,Underestimator,Underestimator,1,0,19,19,58,1
,,,,,,,,,,Calm,3,59198,2022-05-02_09h26.57.388,SelfAnchoring,2021.2.3,Win32,60.11060351,,,,,,,,,,,,,,right,8.3996,Calm,Overestimator,Underestimator,Underestimator,1,0,20,20,2,1
,,,,,,,,,,Comfortable,12,59198,2022-05-02_09h26.57.388,SelfAnchoring,2021.2.3,Win32,60.11060351,,,,,,,,,,,,,,left,4.9567,Comfortable,Overestimator,Underestimator,Overestimator,2,0,21,21,11,1
,,,,,,,,,,Confident,17,59198,2022-05-02_09h26.57.388,SelfAnchoring,2021.2.3,Win32,60.11060351,,,,,,,,,,,,,,left,1.3272,Confident,Overestimator,Underestimator,Overestimator,2,0,22,22,16,1
,,,,,,,,,,Considerate,19,59198,2022-05-02_09h26.57.388,SelfAnchoring,2021.2.3,Win32,60.11060351,,,,,,,,,,,,,,right,4.7226,Considerate,Overestimator,Underestimator,Underestimator,1,0,23,23,18,1
,,,,,,,,,,Verbal,140,59198,2022-05-02_09h26.57.388,SelfAnchoring,2021.2.3,Win32,60.11060351,,,,,,,,,,,,,,left,1.462,Verbal,Overestimator,Underestimator,Overestimator,2,0,24,24,139,1
,,,,,,,,,,Hospitable,61,59198,2022-05-02_09h26.57.388,SelfAnchoring,2021.2.3,Win32,60.11060351,,,,,,,,,,,,,,space,6.6928,Hospitable,Overestimator,Underestimator,-99,-99,0,25,25,60,1
,,,,,,,,,,Modern,76,59198,2022-05-02_09h26.57.388,SelfAnchoring,2021.2.3,Win32,60.11060351,,,,,,,,,,,,,,left,2.3139,Modern,Overestimator,Underestimator,Overestimator,2,0,26,26,75,1
,,,,,,,,,,Conscientious,18,59198,2022-05-02_09h26.57.388,SelfAnchoring,2021.2.3,Win32,60.11060351,,,,,,,,,,,,,,space,4.491,Conscientious,Overestimator,Underestimator,-99,-99,0,27,27,17,1
,,,,,,,,,,Knowledgeable,68,59198,2022-05-02_09h26.57.388,SelfAnchoring,2021.2.3,Win32,60.11060351,,,,,,,,,,,,,,right,2.2907,Knowledgeable,Overestimator,Underestimator,Underestimator,1,0,28,28,67,1
,,,,,,,,,,Economical,34,59198,2022-05-02_09h26.57.388,SelfAnchoring,2021.2.3,Win32,60.11060351,,,,,,,,,,,,,,right,1.0094,Economical,Overestimator,Underestimator,Underestimator,1,0,29,29,33,1
,,,,,,,,,,Thoughtful,129,59198,2022-05-02_09h26.57.388,SelfAnchoring,2021.2.3,Win32,60.11060351,,,,,,,,,,,,,,left,6.1799,Thoughtful,Overestimator,Underestimator,Overestimator,2,0,30,30,128,1
,,,,,,,,,,Fair,40,59198,2022-05-02_09h26.57.388,SelfAnchoring,2021.2.3,Win32,60.11060351,,,,,,,,,,,,,,right,3.1402,Fair,Overestimator,Underestimator,Underestimator,1,0,31,31,39,1
,,,,,,,,,,Benevolent,2,59198,2022-05-02_09h26.57.388,SelfAnchoring,2021.2.3,Win32,60.11060351,,,,,,,,,,,,,,left,4.1186,Benevolent,Overestimator,Underestimator,Overestimator,2,0,32,32,1,1
,,,,,,,,,,Frank,45,59198,2022-05-02_09h26.57.388,SelfAnchoring,2021.2.3,Win32,60.11060351,,,,,,,,,,,,,,right,1.6228,Frank,Overestimator,Underestimator,Underestimator,1,0,33,33,44,1
,,,,,,,,,,Optimistic,83,59198,2022-05-02_09h26.57.388,SelfAnchoring,2021.2.3,Win32,60.11060351,,,,,,,,,,,,,,left,1.5543,Optimistic,Overestimator,Underestimator,Overestimator,2,0,34,34,82,1
,,,,,,,,,,Contemplative,21,59198,2022-05-02_09h26.57.388,SelfAnchoring,2021.2.3,Win32,60.11060351,,,,,,,,,,,,,,right,2.8085,Contemplative,Overestimator,Underestimator,Underestimator,1,0,35,35,20,1
,,,,,,,,,,Warm,142,59198,2022-05-02_09h26.57.388,SelfAnchoring,2021.2.3,Win32,60.11060351,,,,,,,,,,,,,,left,1.281,Warm,Overestimator,Underestimator,Overestimator,2,0,36,36,141,1
,,,,,,,,,,Philosophical,93,59198,2022-05-02_09h26.57.388,SelfAnchoring,2021.2.3,Win32,60.11060351,,,,,,,,,,,,,,right,2.5713,Philosophical,Overestimator,Underestimator,Underestimator,1,0,37,37,92,1
,,,,,,,,,,Gentle,50,59198,2022-05-02_09h26.57.388,SelfAnchoring,2021.2.3,Win32,60.11060351,,,,,,,,,,,,,,left,1.1871,Gentle,Overestimator,Underestimator,Overestimator,2,0,38,38,49,1
,,,,,,,,,,Clean-cut,9,59198,2022-05-02_09h26.57.388,SelfAnchoring,2021.2.3,Win32,60.11060351,,,,,,,,,,,,,,left,1.1664,Clean-cut,Overestimator,Underestimator,Overestimator,2,0,39,39,8,1
,,,,,,,,,,Perfectionistic,90,59198,2022-05-02_09h26.57.388,SelfAnchoring,2021.2.3,Win32,60.11060351,,,,,,,,,,,,,,right,3.3536,Perfectionistic,Overestimator,Underestimator,Underestimator,1,0,40,40,89,1
,,,,,,,,,,Extraverted,39,59198,2022-05-02_09h26.57.388,SelfAnchoring,2021.2.3,Win32,60.11060351,,,,,,,,,,,,,,left,1.7319,Extraverted,Overestimator,Underestimator,Overestimator,2,0,41,41,38,1
,,,,,,,,,,Level-headed,70,59198,2022-05-02_09h26.57.388,SelfAnchoring,2021.2.3,Win32,60.11060351,,,,,,,,,,,,,,right,2.7548,Level-headed,Overestimator,Underestimator,Underestimator,1,0,42,42,69,1
,,,,,,,,,,Capable,4,59198,2022-05-02_09h26.57.388,SelfAnchoring,2021.2.3,Win32,60.11060351,,,,,,,,,,,,,,right,2.0543,Capable,Overestimator,Underestimator,Underestimator,1,0,43,43,3,1
,,,,,,,,,,Orderly,84,59198,2022-05-02_09h26.57.388,SelfAnchoring,2021.2.3,Win32,60.11060351,,,,,,,,,,,,,,left,2.0497,Orderly,Overestimator,Underestimator,Overestimator,2,0,44,44,83,1
,,,,,,,,,,Graceful,57,59198,2022-05-02_09h26.57.388,SelfAnchoring,2021.2.3,Win32,60.11060351,,,,,,,,,,,,,,left,1.3571,Graceful,Overestimator,Underestimator,Overestimator,2,0,45,45,56,1
,,,,,,,,,,Sophisticated,122,59198,2022-05-02_09h26.57.388,SelfAnchoring,2021.2.3,Win32,60.11060351,,,,,,,,,,,,,,left,2.9796,Sophisticated,Overestimator,Underestimator,Overestimator,2,0,46,46,121,1
,,,,,,,,,,Deliberate,27,59198,2022-05-02_09h26.57.388,SelfAnchoring,2021.2.3,Win32,60.11060351,,,,,,,,,,,,,,right,6.476,Deliberate,Overestimator,Underestimator,Underestimator,1,0,47,47,26,1
,,,,,,,,,,Fearless,42,59198,2022-05-02_09h26.57.388,SelfAnchoring,2021.2.3,Win32,60.11060351,,,,,,,,,,,,,,right,2.4553,Fearless,Overestimator,Underestimator,Underestimator,1,0,48,48,41,1
,,,,,,,,,,Rational,105,59198,2022-05-02_09h26.57.388,SelfAnchoring,2021.2.3,Win32,60.11060351,,,,,,,,,,,,,,right,7.7213,Rational,Overestimator,Underestimator,Underestimator,1,0,49,49,104,1
,,,,,,,,,,Honest,60,59198,2022-05-02_09h26.57.388,SelfAnchoring,2021.2.3,Win32,60.11060351,,,,,,,,,,,,,,left,2.2339,Honest,Overestimator,Underestimator,Overestimator,2,0,50,50,59,1
,,,,,,,,,,Open-minded,82,59198,2022-05-02_09h26.57.388,SelfAnchoring,2021.2.3,Win32,60.11060351,,,,,,,,,,,,,,right,3.7302,Open-minded,Overestimator,Underestimator,Underestimator,1,0,51,51,81,1
,,,,,,,,,,Outspoken,87,59198,2022-05-02_09h26.57.388,SelfAnchoring,2021.2.3,Win32,60.11060351,,,,,,,,,,,,,,left,3.6837,Outspoken,Overestimator,Underestimator,Overestimator,2,0,52,52,86,1
,,,,,,,,,,Disciplined,32,59198,2022-05-02_09h26.57.388,SelfAnchoring,2021.2.3,Win32,60.11060351,,,,,,,,,,,,,,left,1.1524,Disciplined,Overestimator,Underestimator,Overestimator,2,0,53,53,31,1
,,,,,,,,,,Mature,75,59198,2022-05-02_09h26.57.388,SelfAnchoring,2021.2.3,Win32,60.11060351,,,,,,,,,,,,,,right,2.0921,Mature,Overestimator,Underestimator,Underestimator,1,0,54,54,74,1
,,,,,,,,,,Well-mannered,143,59198,2022-05-02_09h26.57.388,SelfAnchoring,2021.2.3,Win32,60.11060351,,,,,,,,,,,,,,left,1.7913,Well-mannered,Overestimator,Underestimator,Overestimator,2,0,55,55,142,1
,,,,,,,,,,Well-read,145,59198,2022-05-02_09h26.57.388,SelfAnchoring,2021.2.3,Win32,60.11060351,,,,,,,,,,,,,,right,2.4304,Well-read,Overestimator,Underestimator,Underestimator,1,0,56,56,144,1
,,,,,,,,,,Courageous,24,59198,2022-05-02_09h26.57.388,SelfAnchoring,2021.2.3,Win32,60.11060351,,,,,,,,,,,,,,left,5.3676,Courageous,Overestimator,Underestimator,Overestimator,2,0,57,57,23,1
,,,,,,,,,,Healthy,58,59198,2022-05-02_09h26.57.388,SelfAnchoring,2021.2.3,Win32,60.11060351,,,,,,,,,,,,,,left,4.9998,Healthy,Overestimator,Underestimator,Overestimator,2,0,58,58,57,1
,,,,,,,,,,Cordial,23,59198,2022-05-02_09h26.57.388,SelfAnchoring,2021.2.3,Win32,60.11060351,,,,,,,,,,,,,,left,7.4867,Cordial,Overestimator,Underestimator,Overestimator,2,0,59,59,22,1
,,,,,,,,,,Lively,71,59198,2022-05-02_09h26.57.388,SelfAnchoring,2021.2.3,Win32,60.11060351,,,,,,,,,,,,,,left,0.7668,Lively,Overestimator,Underestimator,Overestimator,2,0,60,60,70,1
,,,,,,,,,,Romantic,111,59198,2022-05-02_09h26.57.388,SelfAnchoring,2021.2.3,Win32,60.11060351,,,,,,,,,,,,,,left,3.3425,Romantic,Overestimator,Underestimator,Overestimator,2,0,61,61,110,1
,,,,,,,,,,Polished,94,59198,2022-05-02_09h26.57.388,SelfAnchoring,2021.2.3,Win32,60.11060351,,,,,,,,,,,,,,left,3.5168,Polished,Overestimator,Underestimator,Overestimator,2,0,62,62,93,1
,,,,,,,,,,Positive,95,59198,2022-05-02_09h26.57.388,SelfAnchoring,2021.2.3,Win32,60.11060351,,,,,,,,,,,,,,left,1.217,Positive,Overestimator,Underestimator,Overestimator,2,0,63,63,94,1
,,,,,,,,,,Mathematical,74,59198,2022-05-02_09h26.57.388,SelfAnchoring,2021.2.3,Win32,60.11060351,,,,,,,,,,,,,,right,2.2846,Mathematical,Overestimator,Underestimator,Underestimator,1,0,64,64,73,1
,,,,,,,,,,Clear-headed,10,59198,2022-05-02_09h26.57.388,SelfAnchoring,2021.2.3,Win32,60.11060351,,,,,,,,,,,,,,right,1.7217,Clear-headed,Overestimator,Underestimator,Underestimator,1,0,65,65,9,1
,,,,,,,,,,Unafraid,132,59198,2022-05-02_09h26.57.388,SelfAnchoring,2021.2.3,Win32,60.11060351,,,,,,,,,,,,,,right,3.28,Unafraid,Overestimator,Underestimator,Underestimator,1,0,66,66,131,1
,,,,,,,,,,Purposeful,102,59198,2022-05-02_09h26.57.388,SelfAnchoring,2021.2.3,Win32,60.11060351,,,,,,,,,,,,,,right,3.384,Purposeful,Overestimator,Underestimator,Underestimator,1,0,67,67,101,1
,,,,,,,,,,Normal,81,59198,2022-05-02_09h26.57.388,SelfAnchoring,2021.2.3,Win32,60.11060351,,,,,,,,,,,,,,right,1.5022,Normal,Overestimator,Underestimator,Underestimator,1,0,68,68,80,1
,,,,,,,,,,Prideful,98,59198,2022-05-02_09h26.57.388,SelfAnchoring,2021.2.3,Win32,60.11060351,,,,,,,,,,,,,,left,1.317,Prideful,Overestimator,Underestimator,Overestimator,2,0,69,69,97,1
,,,,,,,,,,Foresighted,44,59198,2022-05-02_09h26.57.388,SelfAnchoring,2021.2.3,Win32,60.11060351,,,,,,,,,,,,,,right,3.7127,Foresighted,Overestimator,Underestimator,Underestimator,1,0,70,70,43,1
,,,,,,,,,,Self-controlled,113,59198,2022-05-02_09h26.57.388,SelfAnchoring,2021.2.3,Win32,60.11060351,,,,,,,,,,,,,,right,1.2457,Self-controlled,Overestimator,Underestimator,Underestimator,1,0,71,71,112,1
,,,,,,,,,,Studious,126,59198,2022-05-02_09h26.57.388,SelfAnchoring,2021.2.3,Win32,60.11060351,,,,,,,,,,,,,,right,6.0265,Studious,Overestimator,Underestimator,Underestimator,1,0,72,72,125,1
,,,,,,,,,,Accurate,1,59198,2022-05-02_09h26.57.388,SelfAnchoring,2021.2.3,Win32,60.11060351,,,,,,,,,,,,,,right,1.7002,Accurate,Overestimator,Underestimator,Underestimator,1,0,73,73,0,1
,,,,,,,,,,Ethical,37,59198,2022-05-02_09h26.57.388,SelfAnchoring,2021.2.3,Win32,60.11060351,,,,,,,,,,,,,,right,4.2236,Ethical,Overestimator,Underestimator,Underestimator,1,0,74,74,36,1
,,,,,,,,,,Inventive,67,59198,2022-05-02_09h26.57.388,SelfAnchoring,2021.2.3,Win32,60.11060351,,,,,,,,,,,,,,left,2.3383,Inventive,Overestimator,Underestimator,Overestimator,2,0,75,75,66,1
,,,,,,,,,,Unselfish,138,59198,2022-05-02_09h26.57.388,SelfAnchoring,2021.2.3,Win32,60.11060351,,,,,,,,,,,,,,left,2.0929,Unselfish,Overestimator,Underestimator,Overestimator,2,0,76,76,137,1
,,,,,,,,,,Neat,79,59198,2022-05-02_09h26.57.388,SelfAnchoring,2021.2.3,Win32,60.11060351,,,,,,,,,,,,,,left,3.712,Neat,Overestimator,Underestimator,Overestimator,2,0,77,77,78,1
,,,,,,,,,,Realistic,106,59198,2022-05-02_09h26.57.388,SelfAnchoring,2021.2.3,Win32,60.11060351,,,,,,,,,,,,,,right,2.7342,Realistic,Overestimator,Underestimator,Underestimator,1,0,78,78,105,1
,,,,,,,,,,Original,85,59198,2022-05-02_09h26.57.388,SelfAnchoring,2021.2.3,Win32,60.11060351,,,,,,,,,,,,,,right,8.1168,Original,Overestimator,Underestimator,Underestimator,1,0,79,79,84,1
,,,,,,,,,,Well-organized,144,59198,2022-05-02_09h26.57.388,SelfAnchoring,2021.2.3,Win32,60.11060351,,,,,,,,,,,,,,left,1.5789,Well-organized,Overestimator,Underestimator,Overestimator,2,0,80,80,143,1
,,,,,,,,,,Stable,123,59198,2022-05-02_09h26.57.388,SelfAnchoring,2021.2.3,Win32,60.11060351,,,,,,,,,,,,,,left,1.9344,Stable,Overestimator,Underestimator,Overestimator,2,0,81,81,122,1
,,,,,,,,,,Humorous,63,59198,2022-05-02_09h26.57.388,SelfAnchoring,2021.2.3,Win32,60.11060351,,,,,,,,,,,,,,left,1.6173,Humorous,Overestimator,Underestimator,Overestimator,2,0,82,82,62,1
,,,,,,,,,,Versatile,141,59198,2022-05-02_09h26.57.388,SelfAnchoring,2021.2.3,Win32,60.11060351,,,,,,,,,,,,,,right,1.9731,Versatile,Overestimator,Underestimator,Underestimator,1,0,83,83,140,1
,,,,,,,,,,Good-tempered,56,59198,2022-05-02_09h26.57.388,SelfAnchoring,2021.2.3,Win32,60.11060351,,,,,,,,,,,,,,left,1.5102,Good-tempered,Overestimator,Underestimator,Overestimator,2,0,84,84,55,1
,,,,,,,,,,Dedicated,25,59198,2022-05-02_09h26.57.388,SelfAnchoring,2021.2.3,Win32,60.11060351,,,,,,,,,,,,,,right,1.4413,Dedicated,Overestimator,Underestimator,Underestimator,1,0,85,85,24,1
,,,,,,,,,,Tough,131,59198,2022-05-02_09h26.57.388,SelfAnchoring,2021.2.3,Win32,60.11060351,,,,,,,,,,,,,,right,1.0281,Tough,Overestimator,Underestimator,Underestimator,1,0,86,86,130,1
,,,,,,,,,,Sociable,121,59198,2022-05-02_09h26.57.388,SelfAnchoring,2021.2.3,Win32,60.11060351,,,,,,,,,,,,,,left,0.8869,Sociable,Overestimator,Underestimator,Overestimator,2,0,87,87,120,1
,,,,,,,,,,Nice,80,59198,2022-05-02_09h26.57.388,SelfAnchoring,2021.2.3,Win32,60.11060351,,,,,,,,,,,,,,left,1.9913,Nice,Overestimator,Underestimator,Overestimator,2,0,88,88,79,1
,,,,,,,,,,Understanding,134,59198,2022-05-02_09h26.57.388,SelfAnchoring,2021.2.3,Win32,60.11060351,,,,,,,,,,,,,,right,1.2506,Understanding,Overestimator,Underestimator,Underestimator,1,0,89,89,133,1
,,,,,,,,,,Reserved,108,59198,2022-05-02_09h26.57.388,SelfAnchoring,2021.2.3,Win32,60.11060351,,,,,,,,,,,,,,right,1.3013,Reserved,Overestimator,Underestimator,Underestimator,1,0,90,90,107,1
,,,,,,,,,,Constructive,20,59198,2022-05-02_09h26.57.388,SelfAnchoring,2021.2.3,Win32,60.11060351,,,,,,,,,,,,,,right,6.2198,Constructive,Overestimator,Underestimator,Underestimator,1,0,91,91,19,1
,,,,,,,,,,Faithful,41,59198,2022-05-02_09h26.57.388,SelfAnchoring,2021.2.3,Win32,60.11060351,,,,,,,,,,,,,,right,2.0911,Faithful,Overestimator,Underestimator,Underestimator,1,0,92,92,40,1
,,,,,,,,,,Funny,48,59198,2022-05-02_09h26.57.388,SelfAnchoring,2021.2.3,Win32,60.11060351,,,,,,,,,,,,,,left,1.1014,Funny,Overestimator,Underestimator,Overestimator,2,0,93,93,47,1
,,,,,,,,,,Prudent,100,59198,2022-05-02_09h26.57.388,SelfAnchoring,2021.2.3,Win32,60.11060351,,,,,,,,,,,,,,right,1.0745,Prudent,Overestimator,Underestimator,Underestimator,1,0,94,94,99,1
,,,,,,,,,,Good,53,59198,2022-05-02_09h26.57.388,SelfAnchoring,2021.2.3,Win32,60.11060351,,,,,,,,,,,,,,right,1.3504,Good,Overestimator,Underestimator,Underestimator,1,0,95,95,52,1
,,,,,,,,,,Unenvious,135,59198,2022-05-02_09h26.57.388,SelfAnchoring,2021.2.3,Win32,60.11060351,,,,,,,,,,,,,,left,4.0842,Unenvious,Overestimator,Underestimator,Overestimator,2,0,96,96,134,1
,,,,,,,,,,Quick-witted,103,59198,2022-05-02_09h26.57.388,SelfAnchoring,2021.2.3,Win32,60.11060351,,,,,,,,,,,,,,right,2.8333,Quick-witted,Overestimator,Underestimator,Underestimator,1,0,97,97,102,1
,,,,,,,,,,Sincere,118,59198,2022-05-02_09h26.57.388,SelfAnchoring,2021.2.3,Win32,60.11060351,,,,,,,,,,,,,,right,1.8065,Sincere,Overestimator,Underestimator,Underestimator,1,0,98,98,117,1
,,,,,,,,,,Respectful,110,59198,2022-05-02_09h26.57.388,SelfAnchoring,2021.2.3,Win32,60.11060351,,,,,,,,,,,,,,right,3.0506,Respectful,Overestimator,Underestimator,Underestimator,1,0,99,99,109,1
,,,,,,,,,,Subtle,127,59198,2022-05-02_09h26.57.388,SelfAnchoring,2021.2.3,Win32,60.11060351,,,,,,,,,,,,,,right,1.2268,Subtle,Overestimator,Underestimator,Underestimator,1,0,100,100,126,1
,,,,,,,,,,Unassuming,133,59198,2022-05-02_09h26.57.388,SelfAnchoring,2021.2.3,Win32,60.11060351,,,,,,,,,,,,,,right,1.0333,Unassuming,Overestimator,Underestimator,Underestimator,1,0,101,101,132,1
,,,,,,,,,,Quiet,104,59198,2022-05-02_09h26.57.388,SelfAnchoring,2021.2.3,Win32,60.11060351,,,,,,,,,,,,,,right,1.7181,Quiet,Overestimator,Underestimator,Underestimator,1,0,102,102,103,1
,,,,,,,,,,Respectable,109,59198,2022-05-02_09h26.57.388,SelfAnchoring,2021.2.3,Win32,60.11060351,,,,,,,,,,,,,,left,4.7273,Respectable,Overestimator,Underestimator,Overestimator,2,0,103,103,108,1
,,,,,,,,,,Good-humored,54,59198,2022-05-02_09h26.57.388,SelfAnchoring,2021.2.3,Win32,60.11060351,,,,,,,,,,,,,,left,1.2061,Good-humored,Overestimator,Underestimator,Overestimator,2,0,104,104,53,1
,,,,,,,,,,Composed,15,59198,2022-05-02_09h26.57.388,SelfAnchoring,2021.2.3,Win32,60.11060351,,,,,,,,,,,,,,right,1.7172,Composed,Overestimator,Underestimator,Underestimator,1,0,105,105,14,1
,,,,,,,,,,Delicate,28,59198,2022-05-02_09h26.57.388,SelfAnchoring,2021.2.3,Win32,60.11060351,,,,,,,,,,,,,,left,0.9878,Delicate,Overestimator,Underestimator,Overestimator,2,0,106,106,27,1
,,,,,,,,,,Peaceful,89,59198,2022-05-02_09h26.57.388,SelfAnchoring,2021.2.3,Win32,60.11060351,,,,,,,,,,,,,,left,2.4446,Peaceful,Overestimator,Underestimator,Overestimator,2,0,107,107,88,1
,,,,,,,,,,Precise,97,59198,2022-05-02_09h26.57.388,SelfAnchoring,2021.2.3,Win32,60.11060351,,,,,,,,,,,,,,right,2.751,Precise,Overestimator,Underestimator,Underestimator,1,0,108,108,96,1
,,,,,,,,,,Charming,7,59198,2022-05-02_09h26.57.388,SelfAnchoring,2021.2.3,Win32,60.11060351,,,,,,,,,,,,,,left,0.938,Charming,Overestimator,Underestimator,Overestimator,2,0,109,109,6,1
,,,,,,,,,,Prompt,99,59198,2022-05-02_09h26.57.388,SelfAnchoring,2021.2.3,Win32,60.11060351,,,,,,,,,,,,,,right,2.6083,Prompt,Overestimator,Underestimator,Underestimator,1,0,110,110,98,1
,,,,,,,,,,Passionate,88,59198,2022-05-02_09h26.57.388,SelfAnchoring,2021.2.3,Win32,60.11060351,,,,,,,,,,,,,,left,2.7568,Passionate,Overestimator,Underestimator,Overestimator,2,0,111,111,87,1
,,,,,,,,,,Experienced,38,59198,2022-05-02_09h26.57.388,SelfAnchoring,2021.2.3,Win32,60.11060351,,,,,,,,,,,,,,right,3.9714,Experienced,Overestimator,Underestimator,Underestimator,1,0,112,112,37,1
,,,,,,,,,,Practical,96,59198,2022-05-02_09h26.57.388,SelfAnchoring,2021.2.3,Win32,60.11060351,,,,,,,,,,,,,,right,3.6017,Practical,Overestimator,Underestimator,Underestimator,1,0,113,113,95,1
,,,,,,,,,,Skillful,119,59198,2022-05-02_09h26.57.388,SelfAnchoring,2021.2.3,Win32,60.11060351,,,,,,,,,,,,,,right,5.258,Skillful,Overestimator,Underestimator,Underestimator,1,0,114,114,118,1
,,,,,,,,,,Lucky,73,59198,2022-05-02_09h26.57.388,SelfAnchoring,2021.2.3,Win32,60.11060351,,,,,,,,,,,,,,left,0.9176,Lucky,Overestimator,Underestimator,Overestimator,2,0,115,115,72,1
,,,,,,,,,,Persevering,91,59198,2022-05-02_09h26.57.388,SelfAnchoring,2021.2.3,Win32,60.11060351,,,,,,,,,,,,,,right,1.3782,Persevering,Overestimator,Underestimator,Underestimator,1,0,116,116,90,1
,,,,,,,,,,Refined,107,59198,2022-05-02_09h26.57.388,SelfAnchoring,2021.2.3,Win32,60.11060351,,,,,,,,,,,,,,right,3.9213,Refined,Overestimator,Underestimator,Underestimator,1,0,117,117,106,1
,,,,,,,,,,Charitable,6,59198,2022-05-02_09h26.57.388,SelfAnchoring,2021.2.3,Win32,60.11060351,,,,,,,,,,,,,,left,1.894,Charitable,Overestimator,Underestimator,Overestimator,2,0,118,118,5,1
,,,,,,,,,,Untiring,139,59198,2022-05-02_09h26.57.388,SelfAnchoring,2021.2.3,Win32,60.11060351,,,,,,,,,,,,,,right,1.3941,Untiring,Overestimator,Underestimator,Underestimator,1,0,119,119,138,1
,,,,,,,,,,Outgoing,86,59198,2022-05-02_09h26.57.388,SelfAnchoring,2021.2.3,Win32,60.11060351,,,,,,,,,,,,,,left,1.0606,Outgoing,Overestimator,Underestimator,Overestimator,2,0,120,120,85,1
,,,,,,,,,,Industrious,64,59198,2022-05-02_09h26.57.388,SelfAnchoring,2021.2.3,Win32,60.11060351,,,,,,,,,,,,,,left,5.5258,Industrious,Overestimator,Underestimator,Overestimator,2,0,121,121,63,1
,,,,,,,,,,Elegant,35,59198,2022-05-02_09h26.57.388,SelfAnchoring,2021.2.3,Win32,60.11060351,,,,,,,,,,,,,,left,0.9179,Elegant,Overestimator,Underestimator,Overestimator,2,0,122,122,34,1
,,,,,,,,,,Scientific,112,59198,2022-05-02_09h26.57.388,SelfAnchoring,2021.2.3,Win32,60.11060351,,,,,,,,,,,,,,right,1.88,Scientific,Overestimator,Underestimator,Underestimator,1,0,123,123,111,1
,,,,,,,,,,Cooperative,22,59198,2022-05-02_09h26.57.388,SelfAnchoring,2021.2.3,Win32,60.11060351,,,,,,,,,,,,,,left,4.2262,Cooperative,Overestimator,Underestimator,Overestimator,2,0,124,124,21,1
,,,,,,,,,,Casual,5,59198,2022-05-02_09h26.57.388,SelfAnchoring,2021.2.3,Win32,60.11060351,,,,,,,,,,,,,,right,4.1676,Casual,Overestimator,Underestimator,Underestimator,1,0,125,125,4,1
,,,,,,,,,,Lenient,69,59198,2022-05-02_09h26.57.388,SelfAnchoring,2021.2.3,Win32,60.11060351,,,,,,,,,,,,,,left,1.5672,Lenient,Overestimator,Underestimator,Overestimator,2,0,126,126,68,1
,,,,,,,,,,Good-natured,55,59198,2022-05-02_09h26.57.388,SelfAnchoring,2021.2.3,Win32,60.11060351,,,,,,,,,,,,,,left,1.3889,Good-natured,Overestimator,Underestimator,Overestimator,2,0,127,127,54,1
,,,,,,,,,,Self-sufficient,115,59198,2022-05-02_09h26.57.388,SelfAnchoring,2021.2.3,Win32,60.11060351,,,,,,,,,,,,,,right,1.592,Self-sufficient,Overestimator,Underestimator,Underestimator,1,0,128,128,114,1
,,,,,,,,,,Punctual,101,59198,2022-05-02_09h26.57.388,SelfAnchoring,2021.2.3,Win32,60.11060351,,,,,,,,,,,,,,right,2.0008,Punctual,Overestimator,Underestimator,Underestimator,1,0,129,129,100,1
,,,,,,,,,,Dignified,31,59198,2022-05-02_09h26.57.388,SelfAnchoring,2021.2.3,Win32,60.11060351,,,,,,,,,,,,,,left,3.9728,Dignified,Overestimator,Underestimator,Overestimator,2,0,130,130,30,1
,,,,,,,,,,Innocent,65,59198,2022-05-02_09h26.57.388,SelfAnchoring,2021.2.3,Win32,60.11060351,,,,,,,,,,,,,,left,1.2291,Innocent,Overestimator,Underestimator,Overestimator,2,0,131,131,64,1
,,,,,,,,,,Smart,120,59198,2022-05-02_09h26.57.388,SelfAnchoring,2021.2.3,Win32,60.11060351,,,,,,,,,,,,,,right,3.1175,Smart,Overestimator,Underestimator,Underestimator,1,0,132,132,119,1
,,,,,,,,,,Self-critical,114,59198,2022-05-02_09h26.57.388,SelfAnchoring,2021.2.3,Win32,60.11060351,,,,,,,,,,,,,,right,2.2604,Self-critical,Overestimator,Underestimator,Underestimator,1,0,133,133,113,1
,,,,,,,,,,Enthusiastic,36,59198,2022-05-02_09h26.57.388,SelfAnchoring,2021.2.3,Win32,60.11060351,,,,,,,,,,,,,,left,0.8175,Enthusiastic,Overestimator,Underestimator,Overestimator,2,0,134,134,35,1
,,,,,,,,,,Clean,8,59198,2022-05-02_09h26.57.388,SelfAnchoring,2021.2.3,Win32,60.11060351,,,,,,,,,,,,,,left,1.4506,Clean,Overestimator,Underestimator,Overestimator,2,0,135,135,7,1
,,,,,,,,,,Giving,51,59198,2022-05-02_09h26.57.388,SelfAnchoring,2021.2.3,Win32,60.11060351,,,,,,,,,,,,,,left,1.3587,Giving,Overestimator,Underestimator,Overestimator,2,0,136,136,50,1
,,,,,,,,,,Concise,16,59198,2022-05-02_09h26.57.388,SelfAnchoring,2021.2.3,Win32,60.11060351,,,,,,,,,,,,,,right,3.651,Concise,Overestimator,Underestimator,Underestimator,1,0,137,137,15,1
,,,,,,,,,,Friendly,46,59198,2022-05-02_09h26.57.388,SelfAnchoring,2021.2.3,Win32,60.11060351,,,,,,,,,,,,,,left,1.1021,Friendly,Overestimator,Underestimator,Overestimator,2,0,138,138,45,1
,,,,,,,,,,Clever,11,59198,2022-05-02_09h26.57.388,SelfAnchoring,2021.2.3,Win32,60.11060351,,,,,,,,,,,,,,right,1.6844,Clever,Overestimator,Underestimator,Underestimator,1,0,139,139,10,1
,,,,,,,,,,Flexible,43,59198,2022-05-02_09h26.57.388,SelfAnchoring,2021.2.3,Win32,60.11060351,,,,,,,,,,,,,,right,1.2852,Flexible,Overestimator,Underestimator,Underestimator,1,0,140,140,42,1
,,,,,,,,,,Inquisitive,66,59198,2022-05-02_09h26.57.388,SelfAnchoring,2021.2.3,Win32,60.11060351,,,,,,,,,,,,,,left,3.3093,Inquisitive,Overestimator,Underestimator,Overestimator,2,0,141,141,65,1
,,,,,,,,,,Loyal,72,59198,2022-05-02_09h26.57.388,SelfAnchoring,2021.2.3,Win32,60.11060351,,,,,,,,,,,,,,right,1.7736,Loyal,Overestimator,Underestimator,Underestimator,1,0,142,142,71,1
,,,,,,,,,,Steady,124,59198,2022-05-02_09h26.57.388,SelfAnchoring,2021.2.3,Win32,60.11060351,,,,,,,,,,,,,,left,4.3794,Steady,Overestimator,Underestimator,Overestimator,2,0,143,143,123,1
,,,,,,,,,,Glad,52,59198,2022-05-02_09h26.57.388,SelfAnchoring,2021.2.3,Win32,60.11060351,,,,,,,,,,,,,,left,1.9922,Glad,Overestimator,Underestimator,Overestimator,2,0,144,144,51,1
,,,,,,,,,,Humble,62,59198,2022-05-02_09h26.57.388,SelfAnchoring,2021.2.3,Win32,60.11060351,,,,,,,,,,,,,,right,2.3011,Humble,Overestimator,Underestimator,Underestimator,1,0,145,145,61,1
,,,,,,,,,,Sentimental,117,59198,2022-05-02_09h26.57.388,SelfAnchoring,2021.2.3,Win32,60.11060351,,,,,,,,,,,,,,left,5.2171,Sentimental,Overestimator,Underestimator,Overestimator,2,0,146,146,116,1
,,,,,,,,,,Witty,148,59198,2022-05-02_09h26.57.388,SelfAnchoring,2021.2.3,Win32,60.11060351,,,,,,,,,,,,,,right,4.4712,Witty,Overestimator,Underestimator,Underestimator,1,0,147,147,147,1
