Estimator,toCont.keys,toCont.rt,SE.keys,SE.rt,trials_2.thisRepN,trials_2.thisTrialN,trials_2.thisN,trials_2.thisIndex,trials_2.ran,trait,Idx,participant,date,expName,psychopyVersion,OS,frameRate,toCont_2.keys,toCont_2.rt,EnterGuess.text,Guess,dotestLoop.thisRepN,dotestLoop.thisTrialN,dotestLoop.thisN,dotestLoop.thisIndex,dotestLoop.ran,dp,Confirm2.text,toCont_3.keys,toCont_3.rt,resp.keys,resp.rt,traitC,optionLeft,optionRight,optionChoice,choiceResp,choices.thisRepN,choices.thisTrialN,choices.thisN,choices.thisIndex,choices.ran
Underestimator,space,16.2373,5,8.8562,0,0,0,25,1,Clean,8,59233,2022-04-29_17h31.48.095,SelfAnchoring,2021.2.3,Win32,145.4122437,,,,,,,,,,,,,,,,,,,,,,,,,
,,,6,4.7818,0,1,1,30,1,Contemplative,21,59233,2022-04-29_17h31.48.095,SelfAnchoring,2021.2.3,Win32,145.4122437,,,,,,,,,,,,,,,,,,,,,,,,,
,,,5,3.2857,0,2,2,69,1,Sincere,118,59233,2022-04-29_17h31.48.095,SelfAnchoring,2021.2.3,Win32,145.4122437,,,,,,,,,,,,,,,,,,,,,,,,,
,,,6,3.179,0,3,3,72,1,Mathematical,74,59233,2022-04-29_17h31.48.095,SelfAnchoring,2021.2.3,Win32,145.4122437,,,,,,,,,,,,,,,,,,,,,,,,,
,,,space,1.7521,0,4,4,12,1,Untiring,139,59233,2022-04-29_17h31.48.095,SelfAnchoring,2021.2.3,Win32,145.4122437,,,,,,,,,,,,,,,,,,,,,,,,,
,,,2,3.7349,0,5,5,70,1,Clear-headed,10,59233,2022-04-29_17h31.48.095,SelfAnchoring,2021.2.3,Win32,145.4122437,,,,,,,,,,,,,,,,,,,,,,,,,
,,,space,1.3472,0,6,6,62,1,Punctual,101,59233,2022-04-29_17h31.48.095,SelfAnchoring,2021.2.3,Win32,145.4122437,,,,,,,,,,,,,,,,,,,,,,,,,
,,,6,4.1333,0,7,7,68,1,Humble,62,59233,2022-04-29_17h31.48.095,SelfAnchoring,2021.2.3,Win32,145.4122437,,,,,,,,,,,,,,,,,,,,,,,,,
,,,3,2.7983,0,8,8,4,1,Unafraid,132,59233,2022-04-29_17h31.48.095,SelfAnchoring,2021.2.3,Win32,145.4122437,,,,,,,,,,,,,,,,,,,,,,,,,
,,,5,2.9649,0,9,9,65,1,Graceful,57,59233,2022-04-29_17h31.48.095,SelfAnchoring,2021.2.3,Win32,145.4122437,,,,,,,,,,,,,,,,,,,,,,,,,
,,,4,3.3054,0,10,10,15,1,Persevering,91,59233,2022-04-29_17h31.48.095,SelfAnchoring,2021.2.3,Win32,145.4122437,,,,,,,,,,,,,,,,,,,,,,,,,
,,,6,4.8974,0,11,11,16,1,Democratic,29,59233,2022-04-29_17h31.48.095,SelfAnchoring,2021.2.3,Win32,145.4122437,,,,,,,,,,,,,,,,,,,,,,,,,
,,,space,2.2828,0,12,12,75,1,Thrifty,130,59233,2022-04-29_17h31.48.095,SelfAnchoring,2021.2.3,Win32,145.4122437,,,,,,,,,,,,,,,,,,,,,,,,,
,,,4,4.9985,0,13,13,36,1,Unassuming,133,59233,2022-04-29_17h31.48.095,SelfAnchoring,2021.2.3,Win32,145.4122437,,,,,,,,,,,,,,,,,,,,,,,,,
,,,3,2.2716,0,14,14,60,1,Smart,120,59233,2022-04-29_17h31.48.095,SelfAnchoring,2021.2.3,Win32,145.4122437,,,,,,,,,,,,,,,,,,,,,,,,,
,,,3,1.839,0,15,15,11,1,Orderly,84,59233,2022-04-29_17h31.48.095,SelfAnchoring,2021.2.3,Win32,145.4122437,,,,,,,,,,,,,,,,,,,,,,,,,
,,,space,1.4019,0,16,16,0,1,Subtle,127,59233,2022-04-29_17h31.48.095,SelfAnchoring,2021.2.3,Win32,145.4122437,,,,,,,,,,,,,,,,,,,,,,,,,
,,,space,2.2653,0,17,17,40,1,Hospitable,61,59233,2022-04-29_17h31.48.095,SelfAnchoring,2021.2.3,Win32,145.4122437,,,,,,,,,,,,,,,,,,,,,,,,,
,,,4,2.651,0,18,18,21,1,Generous,49,59233,2022-04-29_17h31.48.095,SelfAnchoring,2021.2.3,Win32,145.4122437,,,,,,,,,,,,,,,,,,,,,,,,,
,,,5,1.6556,0,19,19,18,1,Practical,96,59233,2022-04-29_17h31.48.095,SelfAnchoring,2021.2.3,Win32,145.4122437,,,,,,,,,,,,,,,,,,,,,,,,,
,,,space,1.2205,0,20,20,32,1,Cordial,23,59233,2022-04-29_17h31.48.095,SelfAnchoring,2021.2.3,Win32,145.4122437,,,,,,,,,,,,,,,,,,,,,,,,,
,,,5,1.3139,0,21,21,74,1,Thoughtful,129,59233,2022-04-29_17h31.48.095,SelfAnchoring,2021.2.3,Win32,145.4122437,,,,,,,,,,,,,,,,,,,,,,,,,
,,,4,2.1155,0,22,22,89,1,Tough,131,59233,2022-04-29_17h31.48.095,SelfAnchoring,2021.2.3,Win32,145.4122437,,,,,,,,,,,,,,,,,,,,,,,,,
,,,4,2.0405,0,23,23,55,1,Elegant,35,59233,2022-04-29_17h31.48.095,SelfAnchoring,2021.2.3,Win32,145.4122437,,,,,,,,,,,,,,,,,,,,,,,,,
,,,3,2.1286,0,24,24,51,1,Quiet,104,59233,2022-04-29_17h31.48.095,SelfAnchoring,2021.2.3,Win32,145.4122437,,,,,,,,,,,,,,,,,,,,,,,,,
,,,7,3.9057,0,25,25,66,1,Loyal,72,59233,2022-04-29_17h31.48.095,SelfAnchoring,2021.2.3,Win32,145.4122437,,,,,,,,,,,,,,,,,,,,,,,,,
,,,space,5.0599,0,26,26,54,1,Unenvious,135,59233,2022-04-29_17h31.48.095,SelfAnchoring,2021.2.3,Win32,145.4122437,,,,,,,,,,,,,,,,,,,,,,,,,
,,,3,1.8628,0,27,27,88,1,Cooperative,22,59233,2022-04-29_17h31.48.095,SelfAnchoring,2021.2.3,Win32,145.4122437,,,,,,,,,,,,,,,,,,,,,,,,,
,,,4,2.5201,0,28,28,79,1,Understanding,134,59233,2022-04-29_17h31.48.095,SelfAnchoring,2021.2.3,Win32,145.4122437,,,,,,,,,,,,,,,,,,,,,,,,,
,,,4,1.8227,0,29,29,38,1,Honest,60,59233,2022-04-29_17h31.48.095,SelfAnchoring,2021.2.3,Win32,145.4122437,,,,,,,,,,,,,,,,,,,,,,,,,
,,,5,2.4042,0,30,30,53,1,Outgoing,86,59233,2022-04-29_17h31.48.095,SelfAnchoring,2021.2.3,Win32,145.4122437,,,,,,,,,,,,,,,,,,,,,,,,,
,,,space,1.3587,0,31,31,35,1,Inquisitive,66,59233,2022-04-29_17h31.48.095,SelfAnchoring,2021.2.3,Win32,145.4122437,,,,,,,,,,,,,,,,,,,,,,,,,
,,,4,1.9234,0,32,32,24,1,Passionate,88,59233,2022-04-29_17h31.48.095,SelfAnchoring,2021.2.3,Win32,145.4122437,,,,,,,,,,,,,,,,,,,,,,,,,
,,,5,2.1027,0,33,33,31,1,Stable,123,59233,2022-04-29_17h31.48.095,SelfAnchoring,2021.2.3,Win32,145.4122437,,,,,,,,,,,,,,,,,,,,,,,,,
,,,4,2.4092,0,34,34,85,1,Faithful,41,59233,2022-04-29_17h31.48.095,SelfAnchoring,2021.2.3,Win32,145.4122437,,,,,,,,,,,,,,,,,,,,,,,,,
,,,4,2.8609,0,35,35,13,1,Constructive,20,59233,2022-04-29_17h31.48.095,SelfAnchoring,2021.2.3,Win32,145.4122437,,,,,,,,,,,,,,,,,,,,,,,,,
,,,5,4.3057,0,36,36,45,1,Modern,76,59233,2022-04-29_17h31.48.095,SelfAnchoring,2021.2.3,Win32,145.4122437,,,,,,,,,,,,,,,,,,,,,,,,,
,,,5,2.3488,0,37,37,14,1,Deliberate,27,59233,2022-04-29_17h31.48.095,SelfAnchoring,2021.2.3,Win32,145.4122437,,,,,,,,,,,,,,,,,,,,,,,,,
,,,5,2.2426,0,38,38,59,1,Unselfish,138,59233,2022-04-29_17h31.48.095,SelfAnchoring,2021.2.3,Win32,145.4122437,,,,,,,,,,,,,,,,,,,,,,,,,
,,,2,2.8092,0,39,39,6,1,Perfectionistic,90,59233,2022-04-29_17h31.48.095,SelfAnchoring,2021.2.3,Win32,145.4122437,,,,,,,,,,,,,,,,,,,,,,,,,
,,,1,3.0088,0,40,40,82,1,Deep,26,59233,2022-04-29_17h31.48.095,SelfAnchoring,2021.2.3,Win32,145.4122437,,,,,,,,,,,,,,,,,,,,,,,,,
,,,5,2.2832,0,41,41,43,1,Fair,40,59233,2022-04-29_17h31.48.095,SelfAnchoring,2021.2.3,Win32,145.4122437,,,,,,,,,,,,,,,,,,,,,,,,,
,,,5,2.738,0,42,42,64,1,Good,53,59233,2022-04-29_17h31.48.095,SelfAnchoring,2021.2.3,Win32,145.4122437,,,,,,,,,,,,,,,,,,,,,,,,,
,,,space,1.7292,0,43,43,49,1,Rational,105,59233,2022-04-29_17h31.48.095,SelfAnchoring,2021.2.3,Win32,145.4122437,,,,,,,,,,,,,,,,,,,,,,,,,
,,,7,1.9579,0,44,44,19,1,Casual,5,59233,2022-04-29_17h31.48.095,SelfAnchoring,2021.2.3,Win32,145.4122437,,,,,,,,,,,,,,,,,,,,,,,,,
,,,6,1.618,0,45,45,87,1,Peaceful,89,59233,2022-04-29_17h31.48.095,SelfAnchoring,2021.2.3,Win32,145.4122437,,,,,,,,,,,,,,,,,,,,,,,,,
,,,5,1.6814,0,46,46,42,1,Well-mannered,143,59233,2022-04-29_17h31.48.095,SelfAnchoring,2021.2.3,Win32,145.4122437,,,,,,,,,,,,,,,,,,,,,,,,,
,,,4,2.1545,0,47,47,77,1,Charming,7,59233,2022-04-29_17h31.48.095,SelfAnchoring,2021.2.3,Win32,145.4122437,,,,,,,,,,,,,,,,,,,,,,,,,
,,,4,1.8302,0,48,48,22,1,Skillful,119,59233,2022-04-29_17h31.48.095,SelfAnchoring,2021.2.3,Win32,145.4122437,,,,,,,,,,,,,,,,,,,,,,,,,
,,,space,1.2737,0,49,49,90,1,Industrious,64,59233,2022-04-29_17h31.48.095,SelfAnchoring,2021.2.3,Win32,145.4122437,,,,,,,,,,,,,,,,,,,,,,,,,
,,,3,2.0996,0,50,50,33,1,Composed,15,59233,2022-04-29_17h31.48.095,SelfAnchoring,2021.2.3,Win32,145.4122437,,,,,,,,,,,,,,,,,,,,,,,,,
,,,3,1.6637,0,51,51,56,1,Well-read,145,59233,2022-04-29_17h31.48.095,SelfAnchoring,2021.2.3,Win32,145.4122437,,,,,,,,,,,,,,,,,,,,,,,,,
,,,4,1.4092,0,52,52,34,1,Concise,16,59233,2022-04-29_17h31.48.095,SelfAnchoring,2021.2.3,Win32,145.4122437,,,,,,,,,,,,,,,,,,,,,,,,,
,,,2,1.8247,0,53,53,81,1,Communicative,13,59233,2022-04-29_17h31.48.095,SelfAnchoring,2021.2.3,Win32,145.4122437,,,,,,,,,,,,,,,,,,,,,,,,,
,,,6,1.9038,0,54,54,80,1,Disciplined,32,59233,2022-04-29_17h31.48.095,SelfAnchoring,2021.2.3,Win32,145.4122437,,,,,,,,,,,,,,,,,,,,,,,,,
,,,space,1.6531,0,55,55,84,1,Unprejudiced,136,59233,2022-04-29_17h31.48.095,SelfAnchoring,2021.2.3,Win32,145.4122437,,,,,,,,,,,,,,,,,,,,,,,,,
,,,space,2.078,0,56,56,1,1,Self-critical,114,59233,2022-04-29_17h31.48.095,SelfAnchoring,2021.2.3,Win32,145.4122437,,,,,,,,,,,,,,,,,,,,,,,,,
,,,4,2.9669,0,57,57,78,1,Ethical,37,59233,2022-04-29_17h31.48.095,SelfAnchoring,2021.2.3,Win32,145.4122437,,,,,,,,,,,,,,,,,,,,,,,,,
,,,5,1.2743,0,58,58,61,1,Well-spoken,146,59233,2022-04-29_17h31.48.095,SelfAnchoring,2021.2.3,Win32,145.4122437,,,,,,,,,,,,,,,,,,,,,,,,,
,,,2,2.3399,0,59,59,5,1,Scientific,112,59233,2022-04-29_17h31.48.095,SelfAnchoring,2021.2.3,Win32,145.4122437,,,,,,,,,,,,,,,,,,,,,,,,,
,,,2,1.1144,0,60,60,23,1,Talkative,128,59233,2022-04-29_17h31.48.095,SelfAnchoring,2021.2.3,Win32,145.4122437,,,,,,,,,,,,,,,,,,,,,,,,,
,,,5,1.7636,0,61,61,20,1,Refined,107,59233,2022-04-29_17h31.48.095,SelfAnchoring,2021.2.3,Win32,145.4122437,,,,,,,,,,,,,,,,,,,,,,,,,
,,,5,1.7502,0,62,62,86,1,Moral,77,59233,2022-04-29_17h31.48.095,SelfAnchoring,2021.2.3,Win32,145.4122437,,,,,,,,,,,,,,,,,,,,,,,,,
,,,7,2.3081,0,63,63,9,1,Normal,81,59233,2022-04-29_17h31.48.095,SelfAnchoring,2021.2.3,Win32,145.4122437,,,,,,,,,,,,,,,,,,,,,,,,,
,,,5,2.3438,0,64,64,2,1,Persistent,92,59233,2022-04-29_17h31.48.095,SelfAnchoring,2021.2.3,Win32,145.4122437,,,,,,,,,,,,,,,,,,,,,,,,,
,,,6,2.3731,0,65,65,10,1,Respectable,109,59233,2022-04-29_17h31.48.095,SelfAnchoring,2021.2.3,Win32,145.4122437,,,,,,,,,,,,,,,,,,,,,,,,,
,,,7,2.3623,0,66,66,52,1,Good-humored,54,59233,2022-04-29_17h31.48.095,SelfAnchoring,2021.2.3,Win32,145.4122437,,,,,,,,,,,,,,,,,,,,,,,,,
,,,2,1.9911,0,67,67,67,1,Romantic,111,59233,2022-04-29_17h31.48.095,SelfAnchoring,2021.2.3,Win32,145.4122437,,,,,,,,,,,,,,,,,,,,,,,,,
,,,5,2.5795,0,68,68,63,1,Clean-cut,9,59233,2022-04-29_17h31.48.095,SelfAnchoring,2021.2.3,Win32,145.4122437,,,,,,,,,,,,,,,,,,,,,,,,,
,,,5,1.9394,0,69,69,26,1,Capable,4,59233,2022-04-29_17h31.48.095,SelfAnchoring,2021.2.3,Win32,145.4122437,,,,,,,,,,,,,,,,,,,,,,,,,
,,,6,1.4267,0,70,70,39,1,Eager,33,59233,2022-04-29_17h31.48.095,SelfAnchoring,2021.2.3,Win32,145.4122437,,,,,,,,,,,,,,,,,,,,,,,,,
,,,5,2.7772,0,71,71,17,1,Dependable,30,59233,2022-04-29_17h31.48.095,SelfAnchoring,2021.2.3,Win32,145.4122437,,,,,,,,,,,,,,,,,,,,,,,,,
,,,6,1.1482,0,72,72,58,1,Realistic,106,59233,2022-04-29_17h31.48.095,SelfAnchoring,2021.2.3,Win32,145.4122437,,,,,,,,,,,,,,,,,,,,,,,,,
,,,space,1.2146,0,73,73,46,1,Self-sufficient,115,59233,2022-04-29_17h31.48.095,SelfAnchoring,2021.2.3,Win32,145.4122437,,,,,,,,,,,,,,,,,,,,,,,,,
,,,5,1.8686,0,74,74,44,1,Healthy,58,59233,2022-04-29_17h31.48.095,SelfAnchoring,2021.2.3,Win32,145.4122437,,,,,,,,,,,,,,,,,,,,,,,,,
,,,1,1.8337,0,75,75,8,1,Philosophical,93,59233,2022-04-29_17h31.48.095,SelfAnchoring,2021.2.3,Win32,145.4122437,,,,,,,,,,,,,,,,,,,,,,,,,
,,,4,2.6731,0,76,76,50,1,Wise,147,59233,2022-04-29_17h31.48.095,SelfAnchoring,2021.2.3,Win32,145.4122437,,,,,,,,,,,,,,,,,,,,,,,,,
,,,3,2.3979,0,77,77,48,1,Fearless,42,59233,2022-04-29_17h31.48.095,SelfAnchoring,2021.2.3,Win32,145.4122437,,,,,,,,,,,,,,,,,,,,,,,,,
,,,6,3.6592,0,78,78,27,1,Considerate,19,59233,2022-04-29_17h31.48.095,SelfAnchoring,2021.2.3,Win32,145.4122437,,,,,,,,,,,,,,,,,,,,,,,,,
,,,6,1.7401,0,79,79,41,1,Good-tempered,56,59233,2022-04-29_17h31.48.095,SelfAnchoring,2021.2.3,Win32,145.4122437,,,,,,,,,,,,,,,,,,,,,,,,,
,,,5,2.0815,0,80,80,71,1,Dedicated,25,59233,2022-04-29_17h31.48.095,SelfAnchoring,2021.2.3,Win32,145.4122437,,,,,,,,,,,,,,,,,,,,,,,,,
,,,5,1.6264,0,81,81,7,1,Delicate,28,59233,2022-04-29_17h31.48.095,SelfAnchoring,2021.2.3,Win32,145.4122437,,,,,,,,,,,,,,,,,,,,,,,,,
,,,space,0.9644,0,82,82,29,1,Benevolent,2,59233,2022-04-29_17h31.48.095,SelfAnchoring,2021.2.3,Win32,145.4122437,,,,,,,,,,,,,,,,,,,,,,,,,
,,,space,3.0462,0,83,83,37,1,Quick-witted,103,59233,2022-04-29_17h31.48.095,SelfAnchoring,2021.2.3,Win32,145.4122437,,,,,,,,,,,,,,,,,,,,,,,,,
,,,6,1.4599,0,84,84,28,1,Steady,124,59233,2022-04-29_17h31.48.095,SelfAnchoring,2021.2.3,Win32,145.4122437,,,,,,,,,,,,,,,,,,,,,,,,,
,,,5,1.29,0,85,85,76,1,Prideful,98,59233,2022-04-29_17h31.48.095,SelfAnchoring,2021.2.3,Win32,145.4122437,,,,,,,,,,,,,,,,,,,,,,,,,
,,,4,1.9434,0,86,86,47,1,Well-organized,144,59233,2022-04-29_17h31.48.095,SelfAnchoring,2021.2.3,Win32,145.4122437,,,,,,,,,,,,,,,,,,,,,,,,,
,,,4,2.2729,0,87,87,3,1,Original,85,59233,2022-04-29_17h31.48.095,SelfAnchoring,2021.2.3,Win32,145.4122437,,,,,,,,,,,,,,,,,,,,,,,,,
,,,6,1.1028,0,88,88,73,1,Good-natured,55,59233,2022-04-29_17h31.48.095,SelfAnchoring,2021.2.3,Win32,145.4122437,,,,,,,,,,,,,,,,,,,,,,,,,
,,,5,1.5802,0,89,89,83,1,Enthusiastic,36,59233,2022-04-29_17h31.48.095,SelfAnchoring,2021.2.3,Win32,145.4122437,,,,,,,,,,,,,,,,,,,,,,,,,
,,,6,1.5005,0,90,90,57,1,Friendly,46,59233,2022-04-29_17h31.48.095,SelfAnchoring,2021.2.3,Win32,145.4122437,,,,,,,,,,,,,,,,,,,,,,,,,
,,,,,,,,,,,,59233,2022-04-29_17h31.48.095,SelfAnchoring,2021.2.3,Win32,145.4122437,space,4.9616,120,,0,0,0,0,1,plot1.jpg,,,,,,,,,,,,,,,
,,,,,,,,,,,,59233,2022-04-29_17h31.48.095,SelfAnchoring,2021.2.3,Win32,145.4122437,,,200,,0,1,1,4,1,plot5.jpg,,,,,,,,,,,,,,,
,,,,,,,,,,,,59233,2022-04-29_17h31.48.095,SelfAnchoring,2021.2.3,Win32,145.4122437,,,45,,0,2,2,8,1,plot9.jpg,,,,,,,,,,,,,,,
,,,,,,,,,,,,59233,2022-04-29_17h31.48.095,SelfAnchoring,2021.2.3,Win32,145.4122437,,,70,,0,3,3,5,1,plot6.jpg,,,,,,,,,,,,,,,
,,,,,,,,,,,,59233,2022-04-29_17h31.48.095,SelfAnchoring,2021.2.3,Win32,145.4122437,,,65,,0,4,4,6,1,plot7.jpg,,,,,,,,,,,,,,,
,,,,,,,,,,,,59233,2022-04-29_17h31.48.095,SelfAnchoring,2021.2.3,Win32,145.4122437,,,120,,0,5,5,3,1,plot4.jpg,,,,,,,,,,,,,,,
,,,,,,,,,,,,59233,2022-04-29_17h31.48.095,SelfAnchoring,2021.2.3,Win32,145.4122437,,,100,,0,6,6,7,1,plot8.jpg,,,,,,,,,,,,,,,
,,,,,,,,,,,,59233,2022-04-29_17h31.48.095,SelfAnchoring,2021.2.3,Win32,145.4122437,,,90,,0,7,7,2,1,plot3.jpg,,,,,,,,,,,,,,,
,,,,,,,,,,,,59233,2022-04-29_17h31.48.095,SelfAnchoring,2021.2.3,Win32,145.4122437,,,70,,0,8,8,1,1,plot2.jpg,,,,,,,,,,,,,,,
,,,,,,,,,,,,59233,2022-04-29_17h31.48.095,SelfAnchoring,2021.2.3,Win32,145.4122437,,,25,,0,9,9,9,1,plot10.jpg,,,,,,,,,,,,,,,
,,,,,,,,,,Foresighted,44,59233,2022-04-29_17h31.48.095,SelfAnchoring,2021.2.3,Win32,145.4122437,,,,,,,,,,,I am a Underestimator,space,12.8141,left,8.7473,Foresighted,Overestimator,Underestimator,Overestimator,2,0,0,0,43,1
,,,,,,,,,,Neat,79,59233,2022-04-29_17h31.48.095,SelfAnchoring,2021.2.3,Win32,145.4122437,,,,,,,,,,,,,,left,5.6063,Neat,Overestimator,Underestimator,Overestimator,2,0,1,1,78,1
,,,,,,,,,,Cooperative,22,59233,2022-04-29_17h31.48.095,SelfAnchoring,2021.2.3,Win32,145.4122437,,,,,,,,,,,,,,left,8.0654,Cooperative,Overestimator,Underestimator,Overestimator,2,0,2,2,21,1
,,,,,,,,,,Contemplative,21,59233,2022-04-29_17h31.48.095,SelfAnchoring,2021.2.3,Win32,145.4122437,,,,,,,,,,,,,,left,2.1673,Contemplative,Overestimator,Underestimator,Overestimator,2,0,3,3,20,1
,,,,,,,,,,Delicate,28,59233,2022-04-29_17h31.48.095,SelfAnchoring,2021.2.3,Win32,145.4122437,,,,,,,,,,,,,,right,0.93,Delicate,Overestimator,Underestimator,Underestimator,1,0,4,4,27,1
,,,,,,,,,,Constructive,20,59233,2022-04-29_17h31.48.095,SelfAnchoring,2021.2.3,Win32,145.4122437,,,,,,,,,,,,,,right,1.8164,Constructive,Overestimator,Underestimator,Underestimator,1,0,5,5,19,1
,,,,,,,,,,Self-critical,114,59233,2022-04-29_17h31.48.095,SelfAnchoring,2021.2.3,Win32,145.4122437,,,,,,,,,,,,,,right,0.9226,Self-critical,Overestimator,Underestimator,Underestimator,1,0,6,6,113,1
,,,,,,,,,,Studious,126,59233,2022-04-29_17h31.48.095,SelfAnchoring,2021.2.3,Win32,145.4122437,,,,,,,,,,,,,,left,1.6909,Studious,Overestimator,Underestimator,Overestimator,2,0,7,7,125,1
,,,,,,,,,,Charming,7,59233,2022-04-29_17h31.48.095,SelfAnchoring,2021.2.3,Win32,145.4122437,,,,,,,,,,,,,,right,0.9639,Charming,Overestimator,Underestimator,Underestimator,1,0,8,8,6,1
,,,,,,,,,,Witty,148,59233,2022-04-29_17h31.48.095,SelfAnchoring,2021.2.3,Win32,145.4122437,,,,,,,,,,,,,,left,2.6384,Witty,Overestimator,Underestimator,Overestimator,2,0,9,9,147,1
,,,,,,,,,,Casual,5,59233,2022-04-29_17h31.48.095,SelfAnchoring,2021.2.3,Win32,145.4122437,,,,,,,,,,,,,,right,1.3526,Casual,Overestimator,Underestimator,Underestimator,1,0,10,10,4,1
,,,,,,,,,,Talkative,128,59233,2022-04-29_17h31.48.095,SelfAnchoring,2021.2.3,Win32,145.4122437,,,,,,,,,,,,,,left,0.9905,Talkative,Overestimator,Underestimator,Overestimator,2,0,11,11,127,1
,,,,,,,,,,Charitable,6,59233,2022-04-29_17h31.48.095,SelfAnchoring,2021.2.3,Win32,145.4122437,,,,,,,,,,,,,,right,1.656,Charitable,Overestimator,Underestimator,Underestimator,1,0,12,12,5,1
,,,,,,,,,,Purposeful,102,59233,2022-04-29_17h31.48.095,SelfAnchoring,2021.2.3,Win32,145.4122437,,,,,,,,,,,,,,right,2.2383,Purposeful,Overestimator,Underestimator,Underestimator,1,0,13,13,101,1
,,,,,,,,,,Unassuming,133,59233,2022-04-29_17h31.48.095,SelfAnchoring,2021.2.3,Win32,145.4122437,,,,,,,,,,,,,,right,1.1096,Unassuming,Overestimator,Underestimator,Underestimator,1,0,14,14,132,1
,,,,,,,,,,Practical,96,59233,2022-04-29_17h31.48.095,SelfAnchoring,2021.2.3,Win32,145.4122437,,,,,,,,,,,,,,left,1.0174,Practical,Overestimator,Underestimator,Overestimator,2,0,15,15,95,1
,,,,,,,,,,Open-minded,82,59233,2022-04-29_17h31.48.095,SelfAnchoring,2021.2.3,Win32,145.4122437,,,,,,,,,,,,,,left,1.5257,Open-minded,Overestimator,Underestimator,Overestimator,2,0,16,16,81,1
,,,,,,,,,,Self-sufficient,115,59233,2022-04-29_17h31.48.095,SelfAnchoring,2021.2.3,Win32,145.4122437,,,,,,,,,,,,,,right,1.3821,Self-sufficient,Overestimator,Underestimator,Underestimator,1,0,17,17,114,1
,,,,,,,,,,Enthusiastic,36,59233,2022-04-29_17h31.48.095,SelfAnchoring,2021.2.3,Win32,145.4122437,,,,,,,,,,,,,,left,1.8909,Enthusiastic,Overestimator,Underestimator,Overestimator,2,0,18,18,35,1
,,,,,,,,,,Sincere,118,59233,2022-04-29_17h31.48.095,SelfAnchoring,2021.2.3,Win32,145.4122437,,,,,,,,,,,,,,right,1.0018,Sincere,Overestimator,Underestimator,Underestimator,1,0,19,19,117,1
,,,,,,,,,,Capable,4,59233,2022-04-29_17h31.48.095,SelfAnchoring,2021.2.3,Win32,145.4122437,,,,,,,,,,,,,,right,1.1732,Capable,Overestimator,Underestimator,Underestimator,1,0,20,20,3,1
,,,,,,,,,,Well-mannered,143,59233,2022-04-29_17h31.48.095,SelfAnchoring,2021.2.3,Win32,145.4122437,,,,,,,,,,,,,,right,0.8772,Well-mannered,Overestimator,Underestimator,Underestimator,1,0,21,21,142,1
,,,,,,,,,,Democratic,29,59233,2022-04-29_17h31.48.095,SelfAnchoring,2021.2.3,Win32,145.4122437,,,,,,,,,,,,,,left,2.2906,Democratic,Overestimator,Underestimator,Overestimator,2,0,22,22,28,1
,,,,,,,,,,Considerate,19,59233,2022-04-29_17h31.48.095,SelfAnchoring,2021.2.3,Win32,145.4122437,,,,,,,,,,,,,,right,1.8617,Considerate,Overestimator,Underestimator,Underestimator,1,0,23,23,18,1
,,,,,,,,,,Faithful,41,59233,2022-04-29_17h31.48.095,SelfAnchoring,2021.2.3,Win32,145.4122437,,,,,,,,,,,,,,right,1.428,Faithful,Overestimator,Underestimator,Underestimator,1,0,24,24,40,1
,,,,,,,,,,Understanding,134,59233,2022-04-29_17h31.48.095,SelfAnchoring,2021.2.3,Win32,145.4122437,,,,,,,,,,,,,,right,2.0431,Understanding,Overestimator,Underestimator,Underestimator,1,0,25,25,133,1
,,,,,,,,,,Graceful,57,59233,2022-04-29_17h31.48.095,SelfAnchoring,2021.2.3,Win32,145.4122437,,,,,,,,,,,,,,right,0.8754,Graceful,Overestimator,Underestimator,Underestimator,1,0,26,26,56,1
,,,,,,,,,,Ethical,37,59233,2022-04-29_17h31.48.095,SelfAnchoring,2021.2.3,Win32,145.4122437,,,,,,,,,,,,,,left,1.2125,Ethical,Overestimator,Underestimator,Overestimator,2,0,27,27,36,1
,,,,,,,,,,Realistic,106,59233,2022-04-29_17h31.48.095,SelfAnchoring,2021.2.3,Win32,145.4122437,,,,,,,,,,,,,,left,1.325,Realistic,Overestimator,Underestimator,Overestimator,2,0,28,28,105,1
,,,,,,,,,,Nice,80,59233,2022-04-29_17h31.48.095,SelfAnchoring,2021.2.3,Win32,145.4122437,,,,,,,,,,,,,,right,1.5097,Nice,Overestimator,Underestimator,Underestimator,1,0,29,29,79,1
,,,,,,,,,,Wise,147,59233,2022-04-29_17h31.48.095,SelfAnchoring,2021.2.3,Win32,145.4122437,,,,,,,,,,,,,,right,1.3208,Wise,Overestimator,Underestimator,Underestimator,1,0,30,30,146,1
,,,,,,,,,,Sentimental,117,59233,2022-04-29_17h31.48.095,SelfAnchoring,2021.2.3,Win32,145.4122437,,,,,,,,,,,,,,left,0.7533,Sentimental,Overestimator,Underestimator,Overestimator,2,0,31,31,116,1
,,,,,,,,,,Clear-headed,10,59233,2022-04-29_17h31.48.095,SelfAnchoring,2021.2.3,Win32,145.4122437,,,,,,,,,,,,,,right,1.1512,Clear-headed,Overestimator,Underestimator,Underestimator,1,0,32,32,9,1
,,,,,,,,,,Level-headed,70,59233,2022-04-29_17h31.48.095,SelfAnchoring,2021.2.3,Win32,145.4122437,,,,,,,,,,,,,,left,1.1206,Level-headed,Overestimator,Underestimator,Overestimator,2,0,33,33,69,1
,,,,,,,,,,Polished,94,59233,2022-04-29_17h31.48.095,SelfAnchoring,2021.2.3,Win32,145.4122437,,,,,,,,,,,,,,right,0.8332,Polished,Overestimator,Underestimator,Underestimator,1,0,34,34,93,1
,,,,,,,,,,Dedicated,25,59233,2022-04-29_17h31.48.095,SelfAnchoring,2021.2.3,Win32,145.4122437,,,,,,,,,,,,,,right,0.7877,Dedicated,Overestimator,Underestimator,Underestimator,1,0,35,35,24,1
,,,,,,,,,,Giving,51,59233,2022-04-29_17h31.48.095,SelfAnchoring,2021.2.3,Win32,145.4122437,,,,,,,,,,,,,,left,1.0968,Giving,Overestimator,Underestimator,Overestimator,2,0,36,36,50,1
,,,,,,,,,,Loyal,72,59233,2022-04-29_17h31.48.095,SelfAnchoring,2021.2.3,Win32,145.4122437,,,,,,,,,,,,,,left,2.0718,Loyal,Overestimator,Underestimator,Overestimator,2,0,37,37,71,1
,,,,,,,,,,Innocent,65,59233,2022-04-29_17h31.48.095,SelfAnchoring,2021.2.3,Win32,145.4122437,,,,,,,,,,,,,,right,0.2733,Innocent,Overestimator,Underestimator,Underestimator,1,0,38,38,64,1
,,,,,,,,,,Sensitive,116,59233,2022-04-29_17h31.48.095,SelfAnchoring,2021.2.3,Win32,145.4122437,,,,,,,,,,,,,,left,1.6732,Sensitive,Overestimator,Underestimator,Overestimator,2,0,39,39,115,1
,,,,,,,,,,Frank,45,59233,2022-04-29_17h31.48.095,SelfAnchoring,2021.2.3,Win32,145.4122437,,,,,,,,,,,,,,right,1.4001,Frank,Overestimator,Underestimator,Underestimator,1,0,40,40,44,1
,,,,,,,,,,Self-controlled,113,59233,2022-04-29_17h31.48.095,SelfAnchoring,2021.2.3,Win32,145.4122437,,,,,,,,,,,,,,right,3.454,Self-controlled,Overestimator,Underestimator,Underestimator,1,0,41,41,112,1
,,,,,,,,,,Peaceful,89,59233,2022-04-29_17h31.48.095,SelfAnchoring,2021.2.3,Win32,145.4122437,,,,,,,,,,,,,,left,3.5297,Peaceful,Overestimator,Underestimator,Overestimator,2,0,42,42,88,1
,,,,,,,,,,Clever,11,59233,2022-04-29_17h31.48.095,SelfAnchoring,2021.2.3,Win32,145.4122437,,,,,,,,,,,,,,left,1.1026,Clever,Overestimator,Underestimator,Overestimator,2,0,43,43,10,1
,,,,,,,,,,Prompt,99,59233,2022-04-29_17h31.48.095,SelfAnchoring,2021.2.3,Win32,145.4122437,,,,,,,,,,,,,,right,1.6559,Prompt,Overestimator,Underestimator,Underestimator,1,0,44,44,98,1
,,,,,,,,,,Tough,131,59233,2022-04-29_17h31.48.095,SelfAnchoring,2021.2.3,Win32,145.4122437,,,,,,,,,,,,,,left,1.8509,Tough,Overestimator,Underestimator,Overestimator,2,0,45,45,130,1
,,,,,,,,,,Punctual,101,59233,2022-04-29_17h31.48.095,SelfAnchoring,2021.2.3,Win32,145.4122437,,,,,,,,,,,,,,right,0.5867,Punctual,Overestimator,Underestimator,Underestimator,1,0,46,46,100,1
,,,,,,,,,,Mature,75,59233,2022-04-29_17h31.48.095,SelfAnchoring,2021.2.3,Win32,145.4122437,,,,,,,,,,,,,,left,0.8728,Mature,Overestimator,Underestimator,Overestimator,2,0,47,47,74,1
,,,,,,,,,,Respectful,110,59233,2022-04-29_17h31.48.095,SelfAnchoring,2021.2.3,Win32,145.4122437,,,,,,,,,,,,,,right,0.8463,Respectful,Overestimator,Underestimator,Underestimator,1,0,48,48,109,1
,,,,,,,,,,Cordial,23,59233,2022-04-29_17h31.48.095,SelfAnchoring,2021.2.3,Win32,145.4122437,,,,,,,,,,,,,,right,0.6428,Cordial,Overestimator,Underestimator,Underestimator,1,0,49,49,22,1
,,,,,,,,,,Experienced,38,59233,2022-04-29_17h31.48.095,SelfAnchoring,2021.2.3,Win32,145.4122437,,,,,,,,,,,,,,right,1.15,Experienced,Overestimator,Underestimator,Underestimator,1,0,50,50,37,1
,,,,,,,,,,Courageous,24,59233,2022-04-29_17h31.48.095,SelfAnchoring,2021.2.3,Win32,145.4122437,,,,,,,,,,,,,,left,0.9218,Courageous,Overestimator,Underestimator,Overestimator,2,0,51,51,23,1
,,,,,,,,,,Outspoken,87,59233,2022-04-29_17h31.48.095,SelfAnchoring,2021.2.3,Win32,145.4122437,,,,,,,,,,,,,,left,0.9085,Outspoken,Overestimator,Underestimator,Overestimator,2,0,52,52,86,1
,,,,,,,,,,Good,53,59233,2022-04-29_17h31.48.095,SelfAnchoring,2021.2.3,Win32,145.4122437,,,,,,,,,,,,,,right,2.0142,Good,Overestimator,Underestimator,Underestimator,1,0,53,53,52,1
,,,,,,,,,,Respectable,109,59233,2022-04-29_17h31.48.095,SelfAnchoring,2021.2.3,Win32,145.4122437,,,,,,,,,,,,,,right,1.2318,Respectable,Overestimator,Underestimator,Underestimator,1,0,54,54,108,1
,,,,,,,,,,Scientific,112,59233,2022-04-29_17h31.48.095,SelfAnchoring,2021.2.3,Win32,145.4122437,,,,,,,,,,,,,,left,0.7934,Scientific,Overestimator,Underestimator,Overestimator,2,0,55,55,111,1
,,,,,,,,,,Elegant,35,59233,2022-04-29_17h31.48.095,SelfAnchoring,2021.2.3,Win32,145.4122437,,,,,,,,,,,,,,right,1.1731,Elegant,Overestimator,Underestimator,Underestimator,1,0,56,56,34,1
,,,,,,,,,,Good-tempered,56,59233,2022-04-29_17h31.48.095,SelfAnchoring,2021.2.3,Win32,145.4122437,,,,,,,,,,,,,,right,0.777,Good-tempered,Overestimator,Underestimator,Underestimator,1,0,57,57,55,1
,,,,,,,,,,Well-read,145,59233,2022-04-29_17h31.48.095,SelfAnchoring,2021.2.3,Win32,145.4122437,,,,,,,,,,,,,,right,0.5597,Well-read,Overestimator,Underestimator,Underestimator,1,0,58,58,144,1
,,,,,,,,,,Persistent,92,59233,2022-04-29_17h31.48.095,SelfAnchoring,2021.2.3,Win32,145.4122437,,,,,,,,,,,,,,left,1.0993,Persistent,Overestimator,Underestimator,Overestimator,2,0,59,59,91,1
,,,,,,,,,,Smart,120,59233,2022-04-29_17h31.48.095,SelfAnchoring,2021.2.3,Win32,145.4122437,,,,,,,,,,,,,,left,0.8222,Smart,Overestimator,Underestimator,Overestimator,2,0,60,60,119,1
,,,,,,,,,,Conscientious,18,59233,2022-04-29_17h31.48.095,SelfAnchoring,2021.2.3,Win32,145.4122437,,,,,,,,,,,,,,left,1.1374,Conscientious,Overestimator,Underestimator,Overestimator,2,0,61,61,17,1
,,,,,,,,,,Lively,71,59233,2022-04-29_17h31.48.095,SelfAnchoring,2021.2.3,Win32,145.4122437,,,,,,,,,,,,,,left,0.9612,Lively,Overestimator,Underestimator,Overestimator,2,0,62,62,70,1
,,,,,,,,,,Unprejudiced,136,59233,2022-04-29_17h31.48.095,SelfAnchoring,2021.2.3,Win32,145.4122437,,,,,,,,,,,,,,right,0.6788,Unprejudiced,Overestimator,Underestimator,Underestimator,1,0,63,63,135,1
,,,,,,,,,,Disciplined,32,59233,2022-04-29_17h31.48.095,SelfAnchoring,2021.2.3,Win32,145.4122437,,,,,,,,,,,,,,right,0.8312,Disciplined,Overestimator,Underestimator,Underestimator,1,0,64,64,31,1
,,,,,,,,,,Quiet,104,59233,2022-04-29_17h31.48.095,SelfAnchoring,2021.2.3,Win32,145.4122437,,,,,,,,,,,,,,right,0.7812,Quiet,Overestimator,Underestimator,Underestimator,1,0,65,65,103,1
,,,,,,,,,,Prideful,98,59233,2022-04-29_17h31.48.095,SelfAnchoring,2021.2.3,Win32,145.4122437,,,,,,,,,,,,,,left,0.8317,Prideful,Overestimator,Underestimator,Overestimator,2,0,66,66,97,1
,,,,,,,,,,Unenvious,135,59233,2022-04-29_17h31.48.095,SelfAnchoring,2021.2.3,Win32,145.4122437,,,,,,,,,,,,,,left,1.252,Unenvious,Overestimator,Underestimator,Overestimator,2,0,67,67,134,1
,,,,,,,,,,Sociable,121,59233,2022-04-29_17h31.48.095,SelfAnchoring,2021.2.3,Win32,145.4122437,,,,,,,,,,,,,,left,1.4429,Sociable,Overestimator,Underestimator,Overestimator,2,0,68,68,120,1
,,,,,,,,,,Fearless,42,59233,2022-04-29_17h31.48.095,SelfAnchoring,2021.2.3,Win32,145.4122437,,,,,,,,,,,,,,left,1.0337,Fearless,Overestimator,Underestimator,Overestimator,2,0,69,69,41,1
,,,,,,,,,,Good-natured,55,59233,2022-04-29_17h31.48.095,SelfAnchoring,2021.2.3,Win32,145.4122437,,,,,,,,,,,,,,right,0.5639,Good-natured,Overestimator,Underestimator,Underestimator,1,0,70,70,54,1
,,,,,,,,,,Honest,60,59233,2022-04-29_17h31.48.095,SelfAnchoring,2021.2.3,Win32,145.4122437,,,,,,,,,,,,,,right,0.7624,Honest,Overestimator,Underestimator,Underestimator,1,0,71,71,59,1
,,,,,,,,,,Straightforward,125,59233,2022-04-29_17h31.48.095,SelfAnchoring,2021.2.3,Win32,145.4122437,,,,,,,,,,,,,,right,0.9688,Straightforward,Overestimator,Underestimator,Underestimator,1,0,72,72,124,1
,,,,,,,,,,Composed,15,59233,2022-04-29_17h31.48.095,SelfAnchoring,2021.2.3,Win32,145.4122437,,,,,,,,,,,,,,left,0.7279,Composed,Overestimator,Underestimator,Overestimator,2,0,73,73,14,1
,,,,,,,,,,Rational,105,59233,2022-04-29_17h31.48.095,SelfAnchoring,2021.2.3,Win32,145.4122437,,,,,,,,,,,,,,left,1.1981,Rational,Overestimator,Underestimator,Overestimator,2,0,74,74,104,1
,,,,,,,,,,Unpretentious,137,59233,2022-04-29_17h31.48.095,SelfAnchoring,2021.2.3,Win32,145.4122437,,,,,,,,,,,,,,right,0.9216,Unpretentious,Overestimator,Underestimator,Underestimator,1,0,75,75,136,1
,,,,,,,,,,Verbal,140,59233,2022-04-29_17h31.48.095,SelfAnchoring,2021.2.3,Win32,145.4122437,,,,,,,,,,,,,,left,1.0883,Verbal,Overestimator,Underestimator,Overestimator,2,0,76,76,139,1
,,,,,,,,,,Orderly,84,59233,2022-04-29_17h31.48.095,SelfAnchoring,2021.2.3,Win32,145.4122437,,,,,,,,,,,,,,left,1.0385,Orderly,Overestimator,Underestimator,Overestimator,2,0,77,77,83,1
,,,,,,,,,,Flexible,43,59233,2022-04-29_17h31.48.095,SelfAnchoring,2021.2.3,Win32,145.4122437,,,,,,,,,,,,,,right,1.1661,Flexible,Overestimator,Underestimator,Underestimator,1,0,78,78,42,1
,,,,,,,,,,Dependable,30,59233,2022-04-29_17h31.48.095,SelfAnchoring,2021.2.3,Win32,145.4122437,,,,,,,,,,,,,,left,0.6351,Dependable,Overestimator,Underestimator,Overestimator,2,0,79,79,29,1
,,,,,,,,,,Inquisitive,66,59233,2022-04-29_17h31.48.095,SelfAnchoring,2021.2.3,Win32,145.4122437,,,,,,,,,,,,,,right,1.9652,Inquisitive,Overestimator,Underestimator,Underestimator,1,0,80,80,65,1
,,,,,,,,,,Perfectionistic,90,59233,2022-04-29_17h31.48.095,SelfAnchoring,2021.2.3,Win32,145.4122437,,,,,,,,,,,,,,left,1.3527,Perfectionistic,Overestimator,Underestimator,Overestimator,2,0,81,81,89,1
,,,,,,,,,,Hospitable,61,59233,2022-04-29_17h31.48.095,SelfAnchoring,2021.2.3,Win32,145.4122437,,,,,,,,,,,,,,left,1.7239,Hospitable,Overestimator,Underestimator,Overestimator,2,0,82,82,60,1
,,,,,,,,,,Gentle,50,59233,2022-04-29_17h31.48.095,SelfAnchoring,2021.2.3,Win32,145.4122437,,,,,,,,,,,,,,right,0.8971,Gentle,Overestimator,Underestimator,Underestimator,1,0,83,83,49,1
,,,,,,,,,,Lenient,69,59233,2022-04-29_17h31.48.095,SelfAnchoring,2021.2.3,Win32,145.4122437,,,,,,,,,,,,,,right,0.9528,Lenient,Overestimator,Underestimator,Underestimator,1,0,84,84,68,1
,,,,,,,,,,Fun,47,59233,2022-04-29_17h31.48.095,SelfAnchoring,2021.2.3,Win32,145.4122437,,,,,,,,,,,,,,right,0.9966,Fun,Overestimator,Underestimator,Underestimator,1,0,85,85,46,1
,,,,,,,,,,Clean,8,59233,2022-04-29_17h31.48.095,SelfAnchoring,2021.2.3,Win32,145.4122437,,,,,,,,,,,,,,right,0.7387,Clean,Overestimator,Underestimator,Underestimator,1,0,86,86,7,1
,,,,,,,,,,Optimistic,83,59233,2022-04-29_17h31.48.095,SelfAnchoring,2021.2.3,Win32,145.4122437,,,,,,,,,,,,,,right,1.2061,Optimistic,Overestimator,Underestimator,Underestimator,1,0,87,87,82,1
,,,,,,,,,,Deliberate,27,59233,2022-04-29_17h31.48.095,SelfAnchoring,2021.2.3,Win32,145.4122437,,,,,,,,,,,,,,left,1.7552,Deliberate,Overestimator,Underestimator,Overestimator,2,0,88,88,26,1
,,,,,,,,,,Well-spoken,146,59233,2022-04-29_17h31.48.095,SelfAnchoring,2021.2.3,Win32,145.4122437,,,,,,,,,,,,,,left,0.8896,Well-spoken,Overestimator,Underestimator,Overestimator,2,0,89,89,145,1
,,,,,,,,,,Humorous,63,59233,2022-04-29_17h31.48.095,SelfAnchoring,2021.2.3,Win32,145.4122437,,,,,,,,,,,,,,right,3.1725,Humorous,Overestimator,Underestimator,Underestimator,1,0,90,90,62,1
,,,,,,,,,,Romantic,111,59233,2022-04-29_17h31.48.095,SelfAnchoring,2021.2.3,Win32,145.4122437,,,,,,,,,,,,,,left,1.3219,Romantic,Overestimator,Underestimator,Overestimator,2,0,91,91,110,1
,,,,,,,,,,Stable,123,59233,2022-04-29_17h31.48.095,SelfAnchoring,2021.2.3,Win32,145.4122437,,,,,,,,,,,,,,left,5.9806,Stable,Overestimator,Underestimator,Overestimator,2,0,92,92,122,1
,,,,,,,,,,Passionate,88,59233,2022-04-29_17h31.48.095,SelfAnchoring,2021.2.3,Win32,145.4122437,,,,,,,,,,,,,,right,1.7138,Passionate,Overestimator,Underestimator,Underestimator,1,0,93,93,87,1
,,,,,,,,,,Precise,97,59233,2022-04-29_17h31.48.095,SelfAnchoring,2021.2.3,Win32,145.4122437,,,,,,,,,,,,,,left,5.8092,Precise,Overestimator,Underestimator,Overestimator,2,0,94,94,96,1
,,,,,,,,,,Dignified,31,59233,2022-04-29_17h31.48.095,SelfAnchoring,2021.2.3,Win32,145.4122437,,,,,,,,,,,,,,left,1.1383,Dignified,Overestimator,Underestimator,Overestimator,2,0,95,95,30,1
,,,,,,,,,,Persevering,91,59233,2022-04-29_17h31.48.095,SelfAnchoring,2021.2.3,Win32,145.4122437,,,,,,,,,,,,,,right,2.0475,Persevering,Overestimator,Underestimator,Underestimator,1,0,96,96,90,1
,,,,,,,,,,Quick-witted,103,59233,2022-04-29_17h31.48.095,SelfAnchoring,2021.2.3,Win32,145.4122437,,,,,,,,,,,,,,left,2.2897,Quick-witted,Overestimator,Underestimator,Overestimator,2,0,97,97,102,1
,,,,,,,,,,Concise,16,59233,2022-04-29_17h31.48.095,SelfAnchoring,2021.2.3,Win32,145.4122437,,,,,,,,,,,,,,right,1.7288,Concise,Overestimator,Underestimator,Underestimator,1,0,98,98,15,1
,,,,,,,,,,Glad,52,59233,2022-04-29_17h31.48.095,SelfAnchoring,2021.2.3,Win32,145.4122437,,,,,,,,,,,,,,right,0.8987,Glad,Overestimator,Underestimator,Underestimator,1,0,99,99,51,1
,,,,,,,,,,Economical,34,59233,2022-04-29_17h31.48.095,SelfAnchoring,2021.2.3,Win32,145.4122437,,,,,,,,,,,,,,left,1.2942,Economical,Overestimator,Underestimator,Overestimator,2,0,100,100,33,1
,,,,,,,,,,Positive,95,59233,2022-04-29_17h31.48.095,SelfAnchoring,2021.2.3,Win32,145.4122437,,,,,,,,,,,,,,left,0.818,Positive,Overestimator,Underestimator,Overestimator,2,0,101,101,94,1
,,,,,,,,,,Modern,76,59233,2022-04-29_17h31.48.095,SelfAnchoring,2021.2.3,Win32,145.4122437,,,,,,,,,,,,,,left,0.7574,Modern,Overestimator,Underestimator,Overestimator,2,0,102,102,75,1
,,,,,,,,,,Clean-cut,9,59233,2022-04-29_17h31.48.095,SelfAnchoring,2021.2.3,Win32,145.4122437,,,,,,,,,,,,,,right,0.7119,Clean-cut,Overestimator,Underestimator,Underestimator,1,0,103,103,8,1
,,,,,,,,,,Mathematical,74,59233,2022-04-29_17h31.48.095,SelfAnchoring,2021.2.3,Win32,145.4122437,,,,,,,,,,,,,,right,0.8971,Mathematical,Overestimator,Underestimator,Underestimator,1,0,104,104,73,1
,,,,,,,,,,Communicative,13,59233,2022-04-29_17h31.48.095,SelfAnchoring,2021.2.3,Win32,145.4122437,,,,,,,,,,,,,,left,0.9531,Communicative,Overestimator,Underestimator,Overestimator,2,0,105,105,12,1
,,,,,,,,,,Confident,17,59233,2022-04-29_17h31.48.095,SelfAnchoring,2021.2.3,Win32,145.4122437,,,,,,,,,,,,,,left,1.1733,Confident,Overestimator,Underestimator,Overestimator,2,0,106,106,16,1
,,,,,,,,,,Refined,107,59233,2022-04-29_17h31.48.095,SelfAnchoring,2021.2.3,Win32,145.4122437,,,,,,,,,,,,,,right,0.8346,Refined,Overestimator,Underestimator,Underestimator,1,0,107,107,106,1
,,,,,,,,,,Unselfish,138,59233,2022-04-29_17h31.48.095,SelfAnchoring,2021.2.3,Win32,145.4122437,,,,,,,,,,,,,,right,2.1041,Unselfish,Overestimator,Underestimator,Underestimator,1,0,108,108,137,1
,,,,,,,,,,Good-humored,54,59233,2022-04-29_17h31.48.095,SelfAnchoring,2021.2.3,Win32,145.4122437,,,,,,,,,,,,,,right,0.6445,Good-humored,Overestimator,Underestimator,Underestimator,1,0,109,109,53,1
,,,,,,,,,,Well-organized,144,59233,2022-04-29_17h31.48.095,SelfAnchoring,2021.2.3,Win32,145.4122437,,,,,,,,,,,,,,space,2.5481,Well-organized,Overestimator,Underestimator,-99,-99,0,110,110,143,1
,,,,,,,,,,Compassionate,14,59233,2022-04-29_17h31.48.095,SelfAnchoring,2021.2.3,Win32,145.4122437,,,,,,,,,,,,,,left,3.3083,Compassionate,Overestimator,Underestimator,Overestimator,2,0,111,111,13,1
,,,,,,,,,,Eager,33,59233,2022-04-29_17h31.48.095,SelfAnchoring,2021.2.3,Win32,145.4122437,,,,,,,,,,,,,,right,2.949,Eager,Overestimator,Underestimator,Underestimator,1,0,112,112,32,1
,,,,,,,,,,Normal,81,59233,2022-04-29_17h31.48.095,SelfAnchoring,2021.2.3,Win32,145.4122437,,,,,,,,,,,,,,right,1.0956,Normal,Overestimator,Underestimator,Underestimator,1,0,113,113,80,1
,,,,,,,,,,Untiring,139,59233,2022-04-29_17h31.48.095,SelfAnchoring,2021.2.3,Win32,145.4122437,,,,,,,,,,,,,,right,1.8301,Untiring,Overestimator,Underestimator,Underestimator,1,0,114,114,138,1
,,,,,,,,,,Accurate,1,59233,2022-04-29_17h31.48.095,SelfAnchoring,2021.2.3,Win32,145.4122437,,,,,,,,,,,,,,right,1.818,Accurate,Overestimator,Underestimator,Underestimator,1,0,115,115,0,1
,,,,,,,,,,Reserved,108,59233,2022-04-29_17h31.48.095,SelfAnchoring,2021.2.3,Win32,145.4122437,,,,,,,,,,,,,,right,1.3899,Reserved,Overestimator,Underestimator,Underestimator,1,0,116,116,107,1
,,,,,,,,,,Thoughtful,129,59233,2022-04-29_17h31.48.095,SelfAnchoring,2021.2.3,Win32,145.4122437,,,,,,,,,,,,,,right,0.8479,Thoughtful,Overestimator,Underestimator,Underestimator,1,0,117,117,128,1
,,,,,,,,,,Sophisticated,122,59233,2022-04-29_17h31.48.095,SelfAnchoring,2021.2.3,Win32,145.4122437,,,,,,,,,,,,,,left,0.608,Sophisticated,Overestimator,Underestimator,Overestimator,2,0,118,118,121,1
,,,,,,,,,,Moral,77,59233,2022-04-29_17h31.48.095,SelfAnchoring,2021.2.3,Win32,145.4122437,,,,,,,,,,,,,,right,0.7468,Moral,Overestimator,Underestimator,Underestimator,1,0,119,119,76,1
,,,,,,,,,,Natural,78,59233,2022-04-29_17h31.48.095,SelfAnchoring,2021.2.3,Win32,145.4122437,,,,,,,,,,,,,,right,1.2675,Natural,Overestimator,Underestimator,Underestimator,1,0,120,120,77,1
,,,,,,,,,,Warm,142,59233,2022-04-29_17h31.48.095,SelfAnchoring,2021.2.3,Win32,145.4122437,,,,,,,,,,,,,,right,1.7072,Warm,Overestimator,Underestimator,Underestimator,1,0,121,121,141,1
,,,,,,,,,,Knowledgeable,68,59233,2022-04-29_17h31.48.095,SelfAnchoring,2021.2.3,Win32,145.4122437,,,,,,,,,,,,,,left,0.9843,Knowledgeable,Overestimator,Underestimator,Overestimator,2,0,122,122,67,1
,,,,,,,,,,Benevolent,2,59233,2022-04-29_17h31.48.095,SelfAnchoring,2021.2.3,Win32,145.4122437,,,,,,,,,,,,,,left,1.0461,Benevolent,Overestimator,Underestimator,Overestimator,2,0,123,123,1,1
,,,,,,,,,,Generous,49,59233,2022-04-29_17h31.48.095,SelfAnchoring,2021.2.3,Win32,145.4122437,,,,,,,,,,,,,,right,0.8284,Generous,Overestimator,Underestimator,Underestimator,1,0,124,124,48,1
,,,,,,,,,,Philosophical,93,59233,2022-04-29_17h31.48.095,SelfAnchoring,2021.2.3,Win32,145.4122437,,,,,,,,,,,,,,left,1.8253,Philosophical,Overestimator,Underestimator,Overestimator,2,0,125,125,92,1
,,,,,,,,,,Industrious,64,59233,2022-04-29_17h31.48.095,SelfAnchoring,2021.2.3,Win32,145.4122437,,,,,,,,,,,,,,space,1.7578,Industrious,Overestimator,Underestimator,-99,-99,0,126,126,63,1
,,,,,,,,,,Healthy,58,59233,2022-04-29_17h31.48.095,SelfAnchoring,2021.2.3,Win32,145.4122437,,,,,,,,,,,,,,right,3.8719,Healthy,Overestimator,Underestimator,Underestimator,1,0,127,127,57,1
,,,,,,,,,,Unafraid,132,59233,2022-04-29_17h31.48.095,SelfAnchoring,2021.2.3,Win32,145.4122437,,,,,,,,,,,,,,left,1.1071,Unafraid,Overestimator,Underestimator,Overestimator,2,0,128,128,131,1
,,,,,,,,,,Helpful,59,59233,2022-04-29_17h31.48.095,SelfAnchoring,2021.2.3,Win32,145.4122437,,,,,,,,,,,,,,right,0.827,Helpful,Overestimator,Underestimator,Underestimator,1,0,129,129,58,1
,,,,,,,,,,Prudent,100,59233,2022-04-29_17h31.48.095,SelfAnchoring,2021.2.3,Win32,145.4122437,,,,,,,,,,,,,,space,1.0596,Prudent,Overestimator,Underestimator,-99,-99,0,130,130,99,1
,,,,,,,,,,Skillful,119,59233,2022-04-29_17h31.48.095,SelfAnchoring,2021.2.3,Win32,145.4122437,,,,,,,,,,,,,,right,1.6549,Skillful,Overestimator,Underestimator,Underestimator,1,0,131,131,118,1
,,,,,,,,,,Inventive,67,59233,2022-04-29_17h31.48.095,SelfAnchoring,2021.2.3,Win32,145.4122437,,,,,,,,,,,,,,left,1.8129,Inventive,Overestimator,Underestimator,Overestimator,2,0,132,132,66,1
,,,,,,,,,,Lucky,73,59233,2022-04-29_17h31.48.095,SelfAnchoring,2021.2.3,Win32,145.4122437,,,,,,,,,,,,,,right,0.9307,Lucky,Overestimator,Underestimator,Underestimator,1,0,133,133,72,1
,,,,,,,,,,Extraverted,39,59233,2022-04-29_17h31.48.095,SelfAnchoring,2021.2.3,Win32,145.4122437,,,,,,,,,,,,,,space,2.4726,Extraverted,Overestimator,Underestimator,-99,-99,0,134,134,38,1
,,,,,,,,,,Original,85,59233,2022-04-29_17h31.48.095,SelfAnchoring,2021.2.3,Win32,145.4122437,,,,,,,,,,,,,,right,1.457,Original,Overestimator,Underestimator,Underestimator,1,0,135,135,84,1
,,,,,,,,,,Funny,48,59233,2022-04-29_17h31.48.095,SelfAnchoring,2021.2.3,Win32,145.4122437,,,,,,,,,,,,,,right,0.8679,Funny,Overestimator,Underestimator,Underestimator,1,0,136,136,47,1
,,,,,,,,,,Humble,62,59233,2022-04-29_17h31.48.095,SelfAnchoring,2021.2.3,Win32,145.4122437,,,,,,,,,,,,,,right,0.8391,Humble,Overestimator,Underestimator,Underestimator,1,0,137,137,61,1
,,,,,,,,,,Comfortable,12,59233,2022-04-29_17h31.48.095,SelfAnchoring,2021.2.3,Win32,145.4122437,,,,,,,,,,,,,,right,1.4983,Comfortable,Overestimator,Underestimator,Underestimator,1,0,138,138,11,1
,,,,,,,,,,Calm,3,59233,2022-04-29_17h31.48.095,SelfAnchoring,2021.2.3,Win32,145.4122437,,,,,,,,,,,,,,right,0.7364,Calm,Overestimator,Underestimator,Underestimator,1,0,139,139,2,1
,,,,,,,,,,Deep,26,59233,2022-04-29_17h31.48.095,SelfAnchoring,2021.2.3,Win32,145.4122437,,,,,,,,,,,,,,left,1.1595,Deep,Overestimator,Underestimator,Overestimator,2,0,140,140,25,1
,,,,,,,,,,Fair,40,59233,2022-04-29_17h31.48.095,SelfAnchoring,2021.2.3,Win32,145.4122437,,,,,,,,,,,,,,right,2.8231,Fair,Overestimator,Underestimator,Underestimator,1,0,141,141,39,1
,,,,,,,,,,Outgoing,86,59233,2022-04-29_17h31.48.095,SelfAnchoring,2021.2.3,Win32,145.4122437,,,,,,,,,,,,,,right,1.3548,Outgoing,Overestimator,Underestimator,Underestimator,1,0,142,142,85,1
,,,,,,,,,,Steady,124,59233,2022-04-29_17h31.48.095,SelfAnchoring,2021.2.3,Win32,145.4122437,,,,,,,,,,,,,,left,2.1172,Steady,Overestimator,Underestimator,Overestimator,2,0,143,143,123,1
,,,,,,,,,,Subtle,127,59233,2022-04-29_17h31.48.095,SelfAnchoring,2021.2.3,Win32,145.4122437,,,,,,,,,,,,,,space,2.073,Subtle,Overestimator,Underestimator,-99,-99,0,144,144,126,1
,,,,,,,,,,Friendly,46,59233,2022-04-29_17h31.48.095,SelfAnchoring,2021.2.3,Win32,145.4122437,,,,,,,,,,,,,,right,0.9021,Friendly,Overestimator,Underestimator,Underestimator,1,0,145,145,45,1
,,,,,,,,,,Thrifty,130,59233,2022-04-29_17h31.48.095,SelfAnchoring,2021.2.3,Win32,145.4122437,,,,,,,,,,,,,,right,3.7032,Thrifty,Overestimator,Underestimator,Underestimator,1,0,146,146,129,1
,,,,,,,,,,Versatile,141,59233,2022-04-29_17h31.48.095,SelfAnchoring,2021.2.3,Win32,145.4122437,,,,,,,,,,,,,,left,3.5085,Versatile,Overestimator,Underestimator,Overestimator,2,0,147,147,140,1
