Estimator,toCont.keys,toCont.rt,SE.keys,SE.rt,trials_2.thisRepN,trials_2.thisTrialN,trials_2.thisN,trials_2.thisIndex,trials_2.ran,trait,Idx,participant,date,expName,psychopyVersion,OS,frameRate,toCont_2.keys,toCont_2.rt,EnterGuess.text,Guess,dotestLoop.thisRepN,dotestLoop.thisTrialN,dotestLoop.thisN,dotestLoop.thisIndex,dotestLoop.ran,dp,Confirm2.text,toCont_3.keys,toCont_3.rt,resp.keys,resp.rt,traitC,optionLeft,optionRight,optionChoice,choiceResp,choices.thisRepN,choices.thisTrialN,choices.thisN,choices.thisIndex,choices.ran
Underestimator,space,25.017,3,8.318,0,0,0,13,1,Unassuming,133,59353,2022-05-01_19h36.53.558,SelfAnchoring,2021.2.3,MacIntel,66.66666667,,,,,,,,,,,,,,,,,,,,,,,,,
,,,5,14.316,0,1,1,14,1,Accurate,1,59353,2022-05-01_19h36.53.558,SelfAnchoring,2021.2.3,MacIntel,66.66666667,,,,,,,,,,,,,,,,,,,,,,,,,
,,,7,2.426,0,2,2,55,1,Thoughtful,129,59353,2022-05-01_19h36.53.558,SelfAnchoring,2021.2.3,MacIntel,66.66666667,,,,,,,,,,,,,,,,,,,,,,,,,
,,,5,3.243,0,3,3,45,1,Flexible,43,59353,2022-05-01_19h36.53.558,SelfAnchoring,2021.2.3,MacIntel,66.66666667,,,,,,,,,,,,,,,,,,,,,,,,,
,,,6,2.244,0,4,4,38,1,Polished,94,59353,2022-05-01_19h36.53.558,SelfAnchoring,2021.2.3,MacIntel,66.66666667,,,,,,,,,,,,,,,,,,,,,,,,,
,,,4,6.371,0,5,5,75,1,Quiet,104,59353,2022-05-01_19h36.53.558,SelfAnchoring,2021.2.3,MacIntel,66.66666667,,,,,,,,,,,,,,,,,,,,,,,,,
,,,4,3.772,0,6,6,46,1,Positive,95,59353,2022-05-01_19h36.53.558,SelfAnchoring,2021.2.3,MacIntel,66.66666667,,,,,,,,,,,,,,,,,,,,,,,,,
,,,4,2.181,0,7,7,87,1,Healthy,58,59353,2022-05-01_19h36.53.558,SelfAnchoring,2021.2.3,MacIntel,66.66666667,,,,,,,,,,,,,,,,,,,,,,,,,
,,,6,2.71,0,8,8,3,1,Punctual,101,59353,2022-05-01_19h36.53.558,SelfAnchoring,2021.2.3,MacIntel,66.66666667,,,,,,,,,,,,,,,,,,,,,,,,,
,,,3,3.531,0,9,9,28,1,Talkative,128,59353,2022-05-01_19h36.53.558,SelfAnchoring,2021.2.3,MacIntel,66.66666667,,,,,,,,,,,,,,,,,,,,,,,,,
,,,7,3.199,0,10,10,39,1,Giving,51,59353,2022-05-01_19h36.53.558,SelfAnchoring,2021.2.3,MacIntel,66.66666667,,,,,,,,,,,,,,,,,,,,,,,,,
,,,6,17.589,0,11,11,72,1,Clean-cut,9,59353,2022-05-01_19h36.53.558,SelfAnchoring,2021.2.3,MacIntel,66.66666667,,,,,,,,,,,,,,,,,,,,,,,,,
,,,3,26.619,0,12,12,80,1,Funny,48,59353,2022-05-01_19h36.53.558,SelfAnchoring,2021.2.3,MacIntel,66.66666667,,,,,,,,,,,,,,,,,,,,,,,,,
,,,5,11.312,0,13,13,7,1,Ethical,37,59353,2022-05-01_19h36.53.558,SelfAnchoring,2021.2.3,MacIntel,66.66666667,,,,,,,,,,,,,,,,,,,,,,,,,
,,,6,2.229,0,14,14,40,1,Graceful,57,59353,2022-05-01_19h36.53.558,SelfAnchoring,2021.2.3,MacIntel,66.66666667,,,,,,,,,,,,,,,,,,,,,,,,,
,,,5,3.255,0,15,15,90,1,Steady,124,59353,2022-05-01_19h36.53.558,SelfAnchoring,2021.2.3,MacIntel,66.66666667,,,,,,,,,,,,,,,,,,,,,,,,,
,,,6,16.598,0,16,16,63,1,Industrious,64,59353,2022-05-01_19h36.53.558,SelfAnchoring,2021.2.3,MacIntel,66.66666667,,,,,,,,,,,,,,,,,,,,,,,,,
,,,4,2.579,0,17,17,82,1,Sociable,121,59353,2022-05-01_19h36.53.558,SelfAnchoring,2021.2.3,MacIntel,66.66666667,,,,,,,,,,,,,,,,,,,,,,,,,
,,,4,4.115,0,18,18,37,1,Unafraid,132,59353,2022-05-01_19h36.53.558,SelfAnchoring,2021.2.3,MacIntel,66.66666667,,,,,,,,,,,,,,,,,,,,,,,,,
,,,6,2.203,0,19,19,76,1,Fair,40,59353,2022-05-01_19h36.53.558,SelfAnchoring,2021.2.3,MacIntel,66.66666667,,,,,,,,,,,,,,,,,,,,,,,,,
,,,3,3.564,0,20,20,29,1,Clear-headed,10,59353,2022-05-01_19h36.53.558,SelfAnchoring,2021.2.3,MacIntel,66.66666667,,,,,,,,,,,,,,,,,,,,,,,,,
,,,6,1.804,0,21,21,77,1,Purposeful,102,59353,2022-05-01_19h36.53.558,SelfAnchoring,2021.2.3,MacIntel,66.66666667,,,,,,,,,,,,,,,,,,,,,,,,,
,,,5,9.501,0,22,22,33,1,Inquisitive,66,59353,2022-05-01_19h36.53.558,SelfAnchoring,2021.2.3,MacIntel,66.66666667,,,,,,,,,,,,,,,,,,,,,,,,,
,,,5,3.187,0,23,23,5,1,Friendly,46,59353,2022-05-01_19h36.53.558,SelfAnchoring,2021.2.3,MacIntel,66.66666667,,,,,,,,,,,,,,,,,,,,,,,,,
,,,7,21.164,0,24,24,71,1,Sensitive,116,59353,2022-05-01_19h36.53.558,SelfAnchoring,2021.2.3,MacIntel,66.66666667,,,,,,,,,,,,,,,,,,,,,,,,,
,,,4,9.649,0,25,25,47,1,Untiring,139,59353,2022-05-01_19h36.53.558,SelfAnchoring,2021.2.3,MacIntel,66.66666667,,,,,,,,,,,,,,,,,,,,,,,,,
,,,6,2.445,0,26,26,61,1,Good-natured,55,59353,2022-05-01_19h36.53.558,SelfAnchoring,2021.2.3,MacIntel,66.66666667,,,,,,,,,,,,,,,,,,,,,,,,,
,,,6,9.537,0,27,27,30,1,Rational,105,59353,2022-05-01_19h36.53.558,SelfAnchoring,2021.2.3,MacIntel,66.66666667,,,,,,,,,,,,,,,,,,,,,,,,,
,,,6,1.586,0,28,28,89,1,Practical,96,59353,2022-05-01_19h36.53.558,SelfAnchoring,2021.2.3,MacIntel,66.66666667,,,,,,,,,,,,,,,,,,,,,,,,,
,,,7,8.504,0,29,29,18,1,Benevolent,2,59353,2022-05-01_19h36.53.558,SelfAnchoring,2021.2.3,MacIntel,66.66666667,,,,,,,,,,,,,,,,,,,,,,,,,
,,,7,9.103,0,30,30,81,1,Modern,76,59353,2022-05-01_19h36.53.558,SelfAnchoring,2021.2.3,MacIntel,66.66666667,,,,,,,,,,,,,,,,,,,,,,,,,
,,,3,16.29,0,31,31,44,1,Economical,34,59353,2022-05-01_19h36.53.558,SelfAnchoring,2021.2.3,MacIntel,66.66666667,,,,,,,,,,,,,,,,,,,,,,,,,
,,,6,11.83,0,32,32,35,1,Dignified,31,59353,2022-05-01_19h36.53.558,SelfAnchoring,2021.2.3,MacIntel,66.66666667,,,,,,,,,,,,,,,,,,,,,,,,,
,,,6,2.381,0,33,33,9,1,Lucky,73,59353,2022-05-01_19h36.53.558,SelfAnchoring,2021.2.3,MacIntel,66.66666667,,,,,,,,,,,,,,,,,,,,,,,,,
,,,5,22.988,0,34,34,20,1,Quick-witted,103,59353,2022-05-01_19h36.53.558,SelfAnchoring,2021.2.3,MacIntel,66.66666667,,,,,,,,,,,,,,,,,,,,,,,,,
,,,6,2.119,0,35,35,36,1,Optimistic,83,59353,2022-05-01_19h36.53.558,SelfAnchoring,2021.2.3,MacIntel,66.66666667,,,,,,,,,,,,,,,,,,,,,,,,,
,,,6,16.086,0,36,36,48,1,Philosophical,93,59353,2022-05-01_19h36.53.558,SelfAnchoring,2021.2.3,MacIntel,66.66666667,,,,,,,,,,,,,,,,,,,,,,,,,
,,,6,2.12,0,37,37,34,1,Experienced,38,59353,2022-05-01_19h36.53.558,SelfAnchoring,2021.2.3,MacIntel,66.66666667,,,,,,,,,,,,,,,,,,,,,,,,,
,,,6,7.388,0,38,38,42,1,Versatile,141,59353,2022-05-01_19h36.53.558,SelfAnchoring,2021.2.3,MacIntel,66.66666667,,,,,,,,,,,,,,,,,,,,,,,,,
,,,6,3.966,0,39,39,1,1,Enthusiastic,36,59353,2022-05-01_19h36.53.558,SelfAnchoring,2021.2.3,MacIntel,66.66666667,,,,,,,,,,,,,,,,,,,,,,,,,
,,,4,5.651,0,40,40,8,1,Fearless,42,59353,2022-05-01_19h36.53.558,SelfAnchoring,2021.2.3,MacIntel,66.66666667,,,,,,,,,,,,,,,,,,,,,,,,,
,,,7,1.659,0,41,41,24,1,Generous,49,59353,2022-05-01_19h36.53.558,SelfAnchoring,2021.2.3,MacIntel,66.66666667,,,,,,,,,,,,,,,,,,,,,,,,,
,,,5,1.769,0,42,42,2,1,Glad,52,59353,2022-05-01_19h36.53.558,SelfAnchoring,2021.2.3,MacIntel,66.66666667,,,,,,,,,,,,,,,,,,,,,,,,,
,,,7,1.394,0,43,43,58,1,Helpful,59,59353,2022-05-01_19h36.53.558,SelfAnchoring,2021.2.3,MacIntel,66.66666667,,,,,,,,,,,,,,,,,,,,,,,,,
,,,7,10.063,0,44,44,26,1,Unprejudiced,136,59353,2022-05-01_19h36.53.558,SelfAnchoring,2021.2.3,MacIntel,66.66666667,,,,,,,,,,,,,,,,,,,,,,,,,
,,,7,149.072,0,45,45,56,1,Sophisticated,122,59353,2022-05-01_19h36.53.558,SelfAnchoring,2021.2.3,MacIntel,66.66666667,,,,,,,,,,,,,,,,,,,,,,,,,
,,,4,16.038,0,46,46,83,1,Inventive,67,59353,2022-05-01_19h36.53.558,SelfAnchoring,2021.2.3,MacIntel,66.66666667,,,,,,,,,,,,,,,,,,,,,,,,,
,,,7,2.235,0,47,47,79,1,Outgoing,86,59353,2022-05-01_19h36.53.558,SelfAnchoring,2021.2.3,MacIntel,66.66666667,,,,,,,,,,,,,,,,,,,,,,,,,
,,,5,1.913,0,48,48,70,1,Courageous,24,59353,2022-05-01_19h36.53.558,SelfAnchoring,2021.2.3,MacIntel,66.66666667,,,,,,,,,,,,,,,,,,,,,,,,,
,,,4,19.398,0,49,49,62,1,Deep,26,59353,2022-05-01_19h36.53.558,SelfAnchoring,2021.2.3,MacIntel,66.66666667,,,,,,,,,,,,,,,,,,,,,,,,,
,,,6,7.751,0,50,50,19,1,Composed,15,59353,2022-05-01_19h36.53.558,SelfAnchoring,2021.2.3,MacIntel,66.66666667,,,,,,,,,,,,,,,,,,,,,,,,,
,,,7,30.608,0,51,51,50,1,Foresighted,44,59353,2022-05-01_19h36.53.558,SelfAnchoring,2021.2.3,MacIntel,66.66666667,,,,,,,,,,,,,,,,,,,,,,,,,
,,,6,1.998,0,52,52,0,1,Well-organized,144,59353,2022-05-01_19h36.53.558,SelfAnchoring,2021.2.3,MacIntel,66.66666667,,,,,,,,,,,,,,,,,,,,,,,,,
,,,7,2.219,0,53,53,57,1,Delicate,28,59353,2022-05-01_19h36.53.558,SelfAnchoring,2021.2.3,MacIntel,66.66666667,,,,,,,,,,,,,,,,,,,,,,,,,
,,,7,1.365,0,54,54,66,1,Wise,147,59353,2022-05-01_19h36.53.558,SelfAnchoring,2021.2.3,MacIntel,66.66666667,,,,,,,,,,,,,,,,,,,,,,,,,
,,,7,1.34,0,55,55,21,1,Considerate,19,59353,2022-05-01_19h36.53.558,SelfAnchoring,2021.2.3,MacIntel,66.66666667,,,,,,,,,,,,,,,,,,,,,,,,,
,,,7,0.813,0,56,56,49,1,Realistic,106,59353,2022-05-01_19h36.53.558,SelfAnchoring,2021.2.3,MacIntel,66.66666667,,,,,,,,,,,,,,,,,,,,,,,,,
,,,6,10.409,0,57,57,31,1,Deliberate,27,59353,2022-05-01_19h36.53.558,SelfAnchoring,2021.2.3,MacIntel,66.66666667,,,,,,,,,,,,,,,,,,,,,,,,,
,,,6,11.428,0,58,58,15,1,Unpretentious,137,59353,2022-05-01_19h36.53.558,SelfAnchoring,2021.2.3,MacIntel,66.66666667,,,,,,,,,,,,,,,,,,,,,,,,,
,,,7,1.588,0,59,59,6,1,Well-mannered,143,59353,2022-05-01_19h36.53.558,SelfAnchoring,2021.2.3,MacIntel,66.66666667,,,,,,,,,,,,,,,,,,,,,,,,,
,,,6,7.179,0,60,60,86,1,Orderly,84,59353,2022-05-01_19h36.53.558,SelfAnchoring,2021.2.3,MacIntel,66.66666667,,,,,,,,,,,,,,,,,,,,,,,,,
,,,7,1.849,0,61,61,11,1,Reserved,108,59353,2022-05-01_19h36.53.558,SelfAnchoring,2021.2.3,MacIntel,66.66666667,,,,,,,,,,,,,,,,,,,,,,,,,
,,,7,0.615,0,62,62,78,1,Loyal,72,59353,2022-05-01_19h36.53.558,SelfAnchoring,2021.2.3,MacIntel,66.66666667,,,,,,,,,,,,,,,,,,,,,,,,,
,,,6,10.101,0,63,63,16,1,Level-headed,70,59353,2022-05-01_19h36.53.558,SelfAnchoring,2021.2.3,MacIntel,66.66666667,,,,,,,,,,,,,,,,,,,,,,,,,
,,,6,1.976,0,64,64,52,1,Hospitable,61,59353,2022-05-01_19h36.53.558,SelfAnchoring,2021.2.3,MacIntel,66.66666667,,,,,,,,,,,,,,,,,,,,,,,,,
,,,7,0.969,0,65,65,4,1,Lively,71,59353,2022-05-01_19h36.53.558,SelfAnchoring,2021.2.3,MacIntel,66.66666667,,,,,,,,,,,,,,,,,,,,,,,,,
,,,6,2.023,0,66,66,53,1,Eager,33,59353,2022-05-01_19h36.53.558,SelfAnchoring,2021.2.3,MacIntel,66.66666667,,,,,,,,,,,,,,,,,,,,,,,,,
,,,7,0.995,0,67,67,43,1,Communicative,13,59353,2022-05-01_19h36.53.558,SelfAnchoring,2021.2.3,MacIntel,66.66666667,,,,,,,,,,,,,,,,,,,,,,,,,
,,,7,1.418,0,68,68,88,1,Self-critical,114,59353,2022-05-01_19h36.53.558,SelfAnchoring,2021.2.3,MacIntel,66.66666667,,,,,,,,,,,,,,,,,,,,,,,,,
,,,5,12.059,0,69,69,60,1,Persevering,91,59353,2022-05-01_19h36.53.558,SelfAnchoring,2021.2.3,MacIntel,66.66666667,,,,,,,,,,,,,,,,,,,,,,,,,
,,,5,18.697,0,70,70,10,1,Thrifty,130,59353,2022-05-01_19h36.53.558,SelfAnchoring,2021.2.3,MacIntel,66.66666667,,,,,,,,,,,,,,,,,,,,,,,,,
,,,5,2.052,0,71,71,17,1,Tough,131,59353,2022-05-01_19h36.53.558,SelfAnchoring,2021.2.3,MacIntel,66.66666667,,,,,,,,,,,,,,,,,,,,,,,,,
,,,6,13.604,0,72,72,25,1,Concise,16,59353,2022-05-01_19h36.53.558,SelfAnchoring,2021.2.3,MacIntel,66.66666667,,,,,,,,,,,,,,,,,,,,,,,,,
,,,7,1.234,0,73,73,64,1,Mature,75,59353,2022-05-01_19h36.53.558,SelfAnchoring,2021.2.3,MacIntel,66.66666667,,,,,,,,,,,,,,,,,,,,,,,,,
,,,7,10.922,0,74,74,65,1,Conscientious,18,59353,2022-05-01_19h36.53.558,SelfAnchoring,2021.2.3,MacIntel,66.66666667,,,,,,,,,,,,,,,,,,,,,,,,,
,,,5,2.516,0,75,75,41,1,Lenient,69,59353,2022-05-01_19h36.53.558,SelfAnchoring,2021.2.3,MacIntel,66.66666667,,,,,,,,,,,,,,,,,,,,,,,,,
,,,5,1.81,0,76,76,85,1,Humorous,63,59353,2022-05-01_19h36.53.558,SelfAnchoring,2021.2.3,MacIntel,66.66666667,,,,,,,,,,,,,,,,,,,,,,,,,
,,,4,1.876,0,77,77,73,1,Self-controlled,113,59353,2022-05-01_19h36.53.558,SelfAnchoring,2021.2.3,MacIntel,66.66666667,,,,,,,,,,,,,,,,,,,,,,,,,
,,,5,2.533,0,78,78,27,1,Charitable,6,59353,2022-05-01_19h36.53.558,SelfAnchoring,2021.2.3,MacIntel,66.66666667,,,,,,,,,,,,,,,,,,,,,,,,,
,,,7,1.262,0,79,79,32,1,Understanding,134,59353,2022-05-01_19h36.53.558,SelfAnchoring,2021.2.3,MacIntel,66.66666667,,,,,,,,,,,,,,,,,,,,,,,,,
,,,6,1.304,0,80,80,12,1,Humble,62,59353,2022-05-01_19h36.53.558,SelfAnchoring,2021.2.3,MacIntel,66.66666667,,,,,,,,,,,,,,,,,,,,,,,,,
,,,7,0.821,0,81,81,54,1,Respectful,110,59353,2022-05-01_19h36.53.558,SelfAnchoring,2021.2.3,MacIntel,66.66666667,,,,,,,,,,,,,,,,,,,,,,,,,
,,,5,2.218,0,82,82,68,1,Comfortable,12,59353,2022-05-01_19h36.53.558,SelfAnchoring,2021.2.3,MacIntel,66.66666667,,,,,,,,,,,,,,,,,,,,,,,,,
,,,5,16.781,0,83,83,84,1,Moral,77,59353,2022-05-01_19h36.53.558,SelfAnchoring,2021.2.3,MacIntel,66.66666667,,,,,,,,,,,,,,,,,,,,,,,,,
,,,6,12.79,0,84,84,69,1,Straightforward,125,59353,2022-05-01_19h36.53.558,SelfAnchoring,2021.2.3,MacIntel,66.66666667,,,,,,,,,,,,,,,,,,,,,,,,,
,,,6,1.652,0,85,85,67,1,Good,53,59353,2022-05-01_19h36.53.558,SelfAnchoring,2021.2.3,MacIntel,66.66666667,,,,,,,,,,,,,,,,,,,,,,,,,
,,,6,1.54,0,86,86,51,1,Fun,47,59353,2022-05-01_19h36.53.558,SelfAnchoring,2021.2.3,MacIntel,66.66666667,,,,,,,,,,,,,,,,,,,,,,,,,
,,,7,0.665,0,87,87,23,1,Casual,5,59353,2022-05-01_19h36.53.558,SelfAnchoring,2021.2.3,MacIntel,66.66666667,,,,,,,,,,,,,,,,,,,,,,,,,
,,,7,0.841,0,88,88,59,1,Romantic,111,59353,2022-05-01_19h36.53.558,SelfAnchoring,2021.2.3,MacIntel,66.66666667,,,,,,,,,,,,,,,,,,,,,,,,,
,,,7,0.908,0,89,89,22,1,Passionate,88,59353,2022-05-01_19h36.53.558,SelfAnchoring,2021.2.3,MacIntel,66.66666667,,,,,,,,,,,,,,,,,,,,,,,,,
,,,6,1.5,0,90,90,74,1,Clever,11,59353,2022-05-01_19h36.53.558,SelfAnchoring,2021.2.3,MacIntel,66.66666667,,,,,,,,,,,,,,,,,,,,,,,,,
,,,,,,,,,,,,59353,2022-05-01_19h36.53.558,SelfAnchoring,2021.2.3,MacIntel,66.66666667,space,16.081,55,,0,0,0,4,1,plot5.jpg,,,,,,,,,,,,,,,
,,,,,,,,,,,,59353,2022-05-01_19h36.53.558,SelfAnchoring,2021.2.3,MacIntel,66.66666667,,,60,,0,1,1,3,1,plot4.jpg,,,,,,,,,,,,,,,
,,,,,,,,,,,,59353,2022-05-01_19h36.53.558,SelfAnchoring,2021.2.3,MacIntel,66.66666667,,,25,,0,2,2,8,1,plot9.jpg,,,,,,,,,,,,,,,
,,,,,,,,,,,,59353,2022-05-01_19h36.53.558,SelfAnchoring,2021.2.3,MacIntel,66.66666667,,,36,,0,3,3,1,1,plot2.jpg,,,,,,,,,,,,,,,
,,,,,,,,,,,,59353,2022-05-01_19h36.53.558,SelfAnchoring,2021.2.3,MacIntel,66.66666667,,,23,,0,4,4,5,1,plot6.jpg,,,,,,,,,,,,,,,
,,,,,,,,,,,,59353,2022-05-01_19h36.53.558,SelfAnchoring,2021.2.3,MacIntel,66.66666667,,,50,,0,5,5,0,1,plot1.jpg,,,,,,,,,,,,,,,
,,,,,,,,,,,,59353,2022-05-01_19h36.53.558,SelfAnchoring,2021.2.3,MacIntel,66.66666667,,,30,,0,6,6,7,1,plot8.jpg,,,,,,,,,,,,,,,
,,,,,,,,,,,,59353,2022-05-01_19h36.53.558,SelfAnchoring,2021.2.3,MacIntel,66.66666667,,,13,,0,7,7,9,1,plot10.jpg,,,,,,,,,,,,,,,
,,,,,,,,,,,,59353,2022-05-01_19h36.53.558,SelfAnchoring,2021.2.3,MacIntel,66.66666667,,,27,,0,8,8,6,1,plot7.jpg,,,,,,,,,,,,,,,
,,,,,,,,,,,,59353,2022-05-01_19h36.53.558,SelfAnchoring,2021.2.3,MacIntel,66.66666667,,,34,,0,9,9,2,1,plot3.jpg,,,,,,,,,,,,,,,
,,,,,,,,,,Conscientious,18,59353,2022-05-01_19h36.53.558,SelfAnchoring,2021.2.3,MacIntel,66.66666667,,,,,,,,,,,I am a Underestimator,space,11.079,right,26.769,Conscientious,Underestimator,Overestimator,Overestimator,1,0,0,0,17,1
,,,,,,,,,,Unassuming,133,59353,2022-05-01_19h36.53.558,SelfAnchoring,2021.2.3,MacIntel,66.66666667,,,,,,,,,,,,,,left,3.3,Unassuming,Underestimator,Overestimator,Underestimator,2,0,1,1,132,1
,,,,,,,,,,Loyal,72,59353,2022-05-01_19h36.53.558,SelfAnchoring,2021.2.3,MacIntel,66.66666667,,,,,,,,,,,,,,right,6.864,Loyal,Underestimator,Overestimator,Overestimator,1,0,2,2,71,1
,,,,,,,,,,Self-sufficient,115,59353,2022-05-01_19h36.53.558,SelfAnchoring,2021.2.3,MacIntel,66.66666667,,,,,,,,,,,,,,right,22.486,Self-sufficient,Underestimator,Overestimator,Overestimator,1,0,3,3,114,1
,,,,,,,,,,Elegant,35,59353,2022-05-01_19h36.53.558,SelfAnchoring,2021.2.3,MacIntel,66.66666667,,,,,,,,,,,,,,left,3.835,Elegant,Underestimator,Overestimator,Underestimator,2,0,4,4,34,1
,,,,,,,,,,Disciplined,32,59353,2022-05-01_19h36.53.558,SelfAnchoring,2021.2.3,MacIntel,66.66666667,,,,,,,,,,,,,,left,2.164,Disciplined,Underestimator,Overestimator,Underestimator,2,0,5,5,31,1
,,,,,,,,,,Self-controlled,113,59353,2022-05-01_19h36.53.558,SelfAnchoring,2021.2.3,MacIntel,66.66666667,,,,,,,,,,,,,,left,1.551,Self-controlled,Underestimator,Overestimator,Underestimator,2,0,6,6,112,1
,,,,,,,,,,Persistent,92,59353,2022-05-01_19h36.53.558,SelfAnchoring,2021.2.3,MacIntel,66.66666667,,,,,,,,,,,,,,right,1.069,Persistent,Underestimator,Overestimator,Overestimator,1,0,7,7,91,1
,,,,,,,,,,Fun,47,59353,2022-05-01_19h36.53.558,SelfAnchoring,2021.2.3,MacIntel,66.66666667,,,,,,,,,,,,,,right,1.083,Fun,Underestimator,Overestimator,Overestimator,1,0,8,8,46,1
,,,,,,,,,,Glad,52,59353,2022-05-01_19h36.53.558,SelfAnchoring,2021.2.3,MacIntel,66.66666667,,,,,,,,,,,,,,left,2.238,Glad,Underestimator,Overestimator,Underestimator,2,0,9,9,51,1
,,,,,,,,,,Cooperative,22,59353,2022-05-01_19h36.53.558,SelfAnchoring,2021.2.3,MacIntel,66.66666667,,,,,,,,,,,,,,left,2.769,Cooperative,Underestimator,Overestimator,Underestimator,2,0,10,10,21,1
,,,,,,,,,,Inventive,67,59353,2022-05-01_19h36.53.558,SelfAnchoring,2021.2.3,MacIntel,66.66666667,,,,,,,,,,,,,,left,2.24,Inventive,Underestimator,Overestimator,Underestimator,2,0,11,11,66,1
,,,,,,,,,,Experienced,38,59353,2022-05-01_19h36.53.558,SelfAnchoring,2021.2.3,MacIntel,66.66666667,,,,,,,,,,,,,,left,6.276,Experienced,Underestimator,Overestimator,Underestimator,2,0,12,12,37,1
,,,,,,,,,,Lucky,73,59353,2022-05-01_19h36.53.558,SelfAnchoring,2021.2.3,MacIntel,66.66666667,,,,,,,,,,,,,,right,1.547,Lucky,Underestimator,Overestimator,Overestimator,1,0,13,13,72,1
,,,,,,,,,,Stable,123,59353,2022-05-01_19h36.53.558,SelfAnchoring,2021.2.3,MacIntel,66.66666667,,,,,,,,,,,,,,left,3.881,Stable,Underestimator,Overestimator,Underestimator,2,0,14,14,122,1
,,,,,,,,,,Well-mannered,143,59353,2022-05-01_19h36.53.558,SelfAnchoring,2021.2.3,MacIntel,66.66666667,,,,,,,,,,,,,,right,2.049,Well-mannered,Underestimator,Overestimator,Overestimator,1,0,15,15,142,1
,,,,,,,,,,Knowledgeable,68,59353,2022-05-01_19h36.53.558,SelfAnchoring,2021.2.3,MacIntel,66.66666667,,,,,,,,,,,,,,left,2.188,Knowledgeable,Underestimator,Overestimator,Underestimator,2,0,16,16,67,1
,,,,,,,,,,Clever,11,59353,2022-05-01_19h36.53.558,SelfAnchoring,2021.2.3,MacIntel,66.66666667,,,,,,,,,,,,,,left,1.569,Clever,Underestimator,Overestimator,Underestimator,2,0,17,17,10,1
,,,,,,,,,,Sensitive,116,59353,2022-05-01_19h36.53.558,SelfAnchoring,2021.2.3,MacIntel,66.66666667,,,,,,,,,,,,,,left,1.342,Sensitive,Underestimator,Overestimator,Underestimator,2,0,18,18,115,1
,,,,,,,,,,Honest,60,59353,2022-05-01_19h36.53.558,SelfAnchoring,2021.2.3,MacIntel,66.66666667,,,,,,,,,,,,,,right,0.774,Honest,Underestimator,Overestimator,Overestimator,1,0,19,19,59,1
,,,,,,,,,,Well-organized,144,59353,2022-05-01_19h36.53.558,SelfAnchoring,2021.2.3,MacIntel,66.66666667,,,,,,,,,,,,,,right,1.756,Well-organized,Underestimator,Overestimator,Overestimator,1,0,20,20,143,1
,,,,,,,,,,Unselfish,138,59353,2022-05-01_19h36.53.558,SelfAnchoring,2021.2.3,MacIntel,66.66666667,,,,,,,,,,,,,,right,1.315,Unselfish,Underestimator,Overestimator,Overestimator,1,0,21,21,137,1
,,,,,,,,,,Sociable,121,59353,2022-05-01_19h36.53.558,SelfAnchoring,2021.2.3,MacIntel,66.66666667,,,,,,,,,,,,,,right,0.77,Sociable,Underestimator,Overestimator,Overestimator,1,0,22,22,120,1
,,,,,,,,,,Faithful,41,59353,2022-05-01_19h36.53.558,SelfAnchoring,2021.2.3,MacIntel,66.66666667,,,,,,,,,,,,,,left,0.797,Faithful,Underestimator,Overestimator,Underestimator,2,0,23,23,40,1
,,,,,,,,,,Romantic,111,59353,2022-05-01_19h36.53.558,SelfAnchoring,2021.2.3,MacIntel,66.66666667,,,,,,,,,,,,,,right,0.704,Romantic,Underestimator,Overestimator,Overestimator,1,0,24,24,110,1
,,,,,,,,,,Frank,45,59353,2022-05-01_19h36.53.558,SelfAnchoring,2021.2.3,MacIntel,66.66666667,,,,,,,,,,,,,,left,13.93,Frank,Underestimator,Overestimator,Underestimator,2,0,25,25,44,1
,,,,,,,,,,Concise,16,59353,2022-05-01_19h36.53.558,SelfAnchoring,2021.2.3,MacIntel,66.66666667,,,,,,,,,,,,,,left,8.898,Concise,Underestimator,Overestimator,Underestimator,2,0,26,26,15,1
,,,,,,,,,,Thrifty,130,59353,2022-05-01_19h36.53.558,SelfAnchoring,2021.2.3,MacIntel,66.66666667,,,,,,,,,,,,,,right,1.474,Thrifty,Underestimator,Overestimator,Overestimator,1,0,27,27,129,1
,,,,,,,,,,Communicative,13,59353,2022-05-01_19h36.53.558,SelfAnchoring,2021.2.3,MacIntel,66.66666667,,,,,,,,,,,,,,right,1.843,Communicative,Underestimator,Overestimator,Overestimator,1,0,28,28,12,1
,,,,,,,,,,Hospitable,61,59353,2022-05-01_19h36.53.558,SelfAnchoring,2021.2.3,MacIntel,66.66666667,,,,,,,,,,,,,,left,1.01,Hospitable,Underestimator,Overestimator,Underestimator,2,0,29,29,60,1
,,,,,,,,,,Generous,49,59353,2022-05-01_19h36.53.558,SelfAnchoring,2021.2.3,MacIntel,66.66666667,,,,,,,,,,,,,,right,0.918,Generous,Underestimator,Overestimator,Overestimator,1,0,30,30,48,1
,,,,,,,,,,Extraverted,39,59353,2022-05-01_19h36.53.558,SelfAnchoring,2021.2.3,MacIntel,66.66666667,,,,,,,,,,,,,,right,1.1,Extraverted,Underestimator,Overestimator,Overestimator,1,0,31,31,38,1
,,,,,,,,,,Talkative,128,59353,2022-05-01_19h36.53.558,SelfAnchoring,2021.2.3,MacIntel,66.66666667,,,,,,,,,,,,,,right,0.642,Talkative,Underestimator,Overestimator,Overestimator,1,0,32,32,127,1
,,,,,,,,,,Capable,4,59353,2022-05-01_19h36.53.558,SelfAnchoring,2021.2.3,MacIntel,66.66666667,,,,,,,,,,,,,,right,1.235,Capable,Underestimator,Overestimator,Overestimator,1,0,33,33,3,1
,,,,,,,,,,Confident,17,59353,2022-05-01_19h36.53.558,SelfAnchoring,2021.2.3,MacIntel,66.66666667,,,,,,,,,,,,,,right,1.374,Confident,Underestimator,Overestimator,Overestimator,1,0,34,34,16,1
,,,,,,,,,,Precise,97,59353,2022-05-01_19h36.53.558,SelfAnchoring,2021.2.3,MacIntel,66.66666667,,,,,,,,,,,,,,left,1.366,Precise,Underestimator,Overestimator,Underestimator,2,0,35,35,96,1
,,,,,,,,,,Unprejudiced,136,59353,2022-05-01_19h36.53.558,SelfAnchoring,2021.2.3,MacIntel,66.66666667,,,,,,,,,,,,,,left,11.461,Unprejudiced,Underestimator,Overestimator,Underestimator,2,0,36,36,135,1
,,,,,,,,,,Respectful,110,59353,2022-05-01_19h36.53.558,SelfAnchoring,2021.2.3,MacIntel,66.66666667,,,,,,,,,,,,,,right,0.844,Respectful,Underestimator,Overestimator,Overestimator,1,0,37,37,109,1
,,,,,,,,,,Positive,95,59353,2022-05-01_19h36.53.558,SelfAnchoring,2021.2.3,MacIntel,66.66666667,,,,,,,,,,,,,,right,0.685,Positive,Underestimator,Overestimator,Overestimator,1,0,38,38,94,1
,,,,,,,,,,Comfortable,12,59353,2022-05-01_19h36.53.558,SelfAnchoring,2021.2.3,MacIntel,66.66666667,,,,,,,,,,,,,,left,1.732,Comfortable,Underestimator,Overestimator,Underestimator,2,0,39,39,11,1
,,,,,,,,,,Delicate,28,59353,2022-05-01_19h36.53.558,SelfAnchoring,2021.2.3,MacIntel,66.66666667,,,,,,,,,,,,,,right,1.068,Delicate,Underestimator,Overestimator,Overestimator,1,0,40,40,27,1
,,,,,,,,,,Well-read,145,59353,2022-05-01_19h36.53.558,SelfAnchoring,2021.2.3,MacIntel,66.66666667,,,,,,,,,,,,,,right,0.818,Well-read,Underestimator,Overestimator,Overestimator,1,0,41,41,144,1
,,,,,,,,,,Helpful,59,59353,2022-05-01_19h36.53.558,SelfAnchoring,2021.2.3,MacIntel,66.66666667,,,,,,,,,,,,,,right,0.797,Helpful,Underestimator,Overestimator,Overestimator,1,0,42,42,58,1
,,,,,,,,,,Thoughtful,129,59353,2022-05-01_19h36.53.558,SelfAnchoring,2021.2.3,MacIntel,66.66666667,,,,,,,,,,,,,,left,2.002,Thoughtful,Underestimator,Overestimator,Underestimator,2,0,43,43,128,1
,,,,,,,,,,Modern,76,59353,2022-05-01_19h36.53.558,SelfAnchoring,2021.2.3,MacIntel,66.66666667,,,,,,,,,,,,,,left,2.018,Modern,Underestimator,Overestimator,Underestimator,2,0,44,44,75,1
,,,,,,,,,,Punctual,101,59353,2022-05-01_19h36.53.558,SelfAnchoring,2021.2.3,MacIntel,66.66666667,,,,,,,,,,,,,,right,1.222,Punctual,Underestimator,Overestimator,Overestimator,1,0,45,45,100,1
,,,,,,,,,,Fair,40,59353,2022-05-01_19h36.53.558,SelfAnchoring,2021.2.3,MacIntel,66.66666667,,,,,,,,,,,,,,right,0.724,Fair,Underestimator,Overestimator,Overestimator,1,0,46,46,39,1
,,,,,,,,,,Prudent,100,59353,2022-05-01_19h36.53.558,SelfAnchoring,2021.2.3,MacIntel,66.66666667,,,,,,,,,,,,,,right,0.91,Prudent,Underestimator,Overestimator,Overestimator,1,0,47,47,99,1
,,,,,,,,,,Compassionate,14,59353,2022-05-01_19h36.53.558,SelfAnchoring,2021.2.3,MacIntel,66.66666667,,,,,,,,,,,,,,left,1.618,Compassionate,Underestimator,Overestimator,Underestimator,2,0,48,48,13,1
,,,,,,,,,,Mathematical,74,59353,2022-05-01_19h36.53.558,SelfAnchoring,2021.2.3,MacIntel,66.66666667,,,,,,,,,,,,,,right,2.693,Mathematical,Underestimator,Overestimator,Overestimator,1,0,49,49,73,1
,,,,,,,,,,Well-spoken,146,59353,2022-05-01_19h36.53.558,SelfAnchoring,2021.2.3,MacIntel,66.66666667,,,,,,,,,,,,,,right,1.303,Well-spoken,Underestimator,Overestimator,Overestimator,1,0,50,50,145,1
,,,,,,,,,,Moral,77,59353,2022-05-01_19h36.53.558,SelfAnchoring,2021.2.3,MacIntel,66.66666667,,,,,,,,,,,,,,right,1.088,Moral,Underestimator,Overestimator,Overestimator,1,0,51,51,76,1
,,,,,,,,,,Sincere,118,59353,2022-05-01_19h36.53.558,SelfAnchoring,2021.2.3,MacIntel,66.66666667,,,,,,,,,,,,,,left,1.023,Sincere,Underestimator,Overestimator,Underestimator,2,0,52,52,117,1
,,,,,,,,,,Passionate,88,59353,2022-05-01_19h36.53.558,SelfAnchoring,2021.2.3,MacIntel,66.66666667,,,,,,,,,,,,,,right,0.749,Passionate,Underestimator,Overestimator,Overestimator,1,0,53,53,87,1
,,,,,,,,,,Reserved,108,59353,2022-05-01_19h36.53.558,SelfAnchoring,2021.2.3,MacIntel,66.66666667,,,,,,,,,,,,,,left,0.981,Reserved,Underestimator,Overestimator,Underestimator,2,0,54,54,107,1
,,,,,,,,,,Skillful,119,59353,2022-05-01_19h36.53.558,SelfAnchoring,2021.2.3,MacIntel,66.66666667,,,,,,,,,,,,,,right,0.865,Skillful,Underestimator,Overestimator,Overestimator,1,0,55,55,118,1
,,,,,,,,,,Polished,94,59353,2022-05-01_19h36.53.558,SelfAnchoring,2021.2.3,MacIntel,66.66666667,,,,,,,,,,,,,,right,1.727,Polished,Underestimator,Overestimator,Overestimator,1,0,56,56,93,1
,,,,,,,,,,Sentimental,117,59353,2022-05-01_19h36.53.558,SelfAnchoring,2021.2.3,MacIntel,66.66666667,,,,,,,,,,,,,,left,0.891,Sentimental,Underestimator,Overestimator,Underestimator,2,0,57,57,116,1
,,,,,,,,,,Quiet,104,59353,2022-05-01_19h36.53.558,SelfAnchoring,2021.2.3,MacIntel,66.66666667,,,,,,,,,,,,,,left,0.547,Quiet,Underestimator,Overestimator,Underestimator,2,0,58,58,103,1
,,,,,,,,,,Humble,62,59353,2022-05-01_19h36.53.558,SelfAnchoring,2021.2.3,MacIntel,66.66666667,,,,,,,,,,,,,,left,1.778,Humble,Underestimator,Overestimator,Underestimator,2,0,59,59,61,1
,,,,,,,,,,Lively,71,59353,2022-05-01_19h36.53.558,SelfAnchoring,2021.2.3,MacIntel,66.66666667,,,,,,,,,,,,,,right,1.769,Lively,Underestimator,Overestimator,Overestimator,1,0,60,60,70,1
,,,,,,,,,,Dependable,30,59353,2022-05-01_19h36.53.558,SelfAnchoring,2021.2.3,MacIntel,66.66666667,,,,,,,,,,,,,,left,3.344,Dependable,Underestimator,Overestimator,Underestimator,2,0,61,61,29,1
,,,,,,,,,,Self-critical,114,59353,2022-05-01_19h36.53.558,SelfAnchoring,2021.2.3,MacIntel,66.66666667,,,,,,,,,,,,,,left,1.116,Self-critical,Underestimator,Overestimator,Underestimator,2,0,62,62,113,1
,,,,,,,,,,Untiring,139,59353,2022-05-01_19h36.53.558,SelfAnchoring,2021.2.3,MacIntel,66.66666667,,,,,,,,,,,,,,right,1.523,Untiring,Underestimator,Overestimator,Overestimator,1,0,63,63,138,1
,,,,,,,,,,Smart,120,59353,2022-05-01_19h36.53.558,SelfAnchoring,2021.2.3,MacIntel,66.66666667,,,,,,,,,,,,,,right,0.842,Smart,Underestimator,Overestimator,Overestimator,1,0,64,64,119,1
,,,,,,,,,,Enthusiastic,36,59353,2022-05-01_19h36.53.558,SelfAnchoring,2021.2.3,MacIntel,66.66666667,,,,,,,,,,,,,,left,2.027,Enthusiastic,Underestimator,Overestimator,Underestimator,2,0,65,65,35,1
,,,,,,,,,,Charitable,6,59353,2022-05-01_19h36.53.558,SelfAnchoring,2021.2.3,MacIntel,66.66666667,,,,,,,,,,,,,,left,1.095,Charitable,Underestimator,Overestimator,Underestimator,2,0,66,66,5,1
,,,,,,,,,,Deep,26,59353,2022-05-01_19h36.53.558,SelfAnchoring,2021.2.3,MacIntel,66.66666667,,,,,,,,,,,,,,right,1.79,Deep,Underestimator,Overestimator,Overestimator,1,0,67,67,25,1
,,,,,,,,,,Straightforward,125,59353,2022-05-01_19h36.53.558,SelfAnchoring,2021.2.3,MacIntel,66.66666667,,,,,,,,,,,,,,right,1.05,Straightforward,Underestimator,Overestimator,Overestimator,1,0,68,68,124,1
,,,,,,,,,,Benevolent,2,59353,2022-05-01_19h36.53.558,SelfAnchoring,2021.2.3,MacIntel,66.66666667,,,,,,,,,,,,,,left,8.095,Benevolent,Underestimator,Overestimator,Underestimator,2,0,69,69,1,1
,,,,,,,,,,Foresighted,44,59353,2022-05-01_19h36.53.558,SelfAnchoring,2021.2.3,MacIntel,66.66666667,,,,,,,,,,,,,,right,10.011,Foresighted,Underestimator,Overestimator,Overestimator,1,0,70,70,43,1
,,,,,,,,,,Contemplative,21,59353,2022-05-01_19h36.53.558,SelfAnchoring,2021.2.3,MacIntel,66.66666667,,,,,,,,,,,,,,right,1.914,Contemplative,Underestimator,Overestimator,Overestimator,1,0,71,71,20,1
,,,,,,,,,,Understanding,134,59353,2022-05-01_19h36.53.558,SelfAnchoring,2021.2.3,MacIntel,66.66666667,,,,,,,,,,,,,,right,0.682,Understanding,Underestimator,Overestimator,Overestimator,1,0,72,72,133,1
,,,,,,,,,,Fearless,42,59353,2022-05-01_19h36.53.558,SelfAnchoring,2021.2.3,MacIntel,66.66666667,,,,,,,,,,,,,,left,0.637,Fearless,Underestimator,Overestimator,Underestimator,2,0,73,73,41,1
,,,,,,,,,,Good-tempered,56,59353,2022-05-01_19h36.53.558,SelfAnchoring,2021.2.3,MacIntel,66.66666667,,,,,,,,,,,,,,right,1.418,Good-tempered,Underestimator,Overestimator,Overestimator,1,0,74,74,55,1
,,,,,,,,,,Unenvious,135,59353,2022-05-01_19h36.53.558,SelfAnchoring,2021.2.3,MacIntel,66.66666667,,,,,,,,,,,,,,left,0.981,Unenvious,Underestimator,Overestimator,Underestimator,2,0,75,75,134,1
,,,,,,,,,,Persevering,91,59353,2022-05-01_19h36.53.558,SelfAnchoring,2021.2.3,MacIntel,66.66666667,,,,,,,,,,,,,,left,2.05,Persevering,Underestimator,Overestimator,Underestimator,2,0,76,76,90,1
,,,,,,,,,,Level-headed,70,59353,2022-05-01_19h36.53.558,SelfAnchoring,2021.2.3,MacIntel,66.66666667,,,,,,,,,,,,,,left,1.594,Level-headed,Underestimator,Overestimator,Underestimator,2,0,77,77,69,1
,,,,,,,,,,Perfectionistic,90,59353,2022-05-01_19h36.53.558,SelfAnchoring,2021.2.3,MacIntel,66.66666667,,,,,,,,,,,,,,left,3.078,Perfectionistic,Underestimator,Overestimator,Underestimator,2,0,78,78,89,1
,,,,,,,,,,Considerate,19,59353,2022-05-01_19h36.53.558,SelfAnchoring,2021.2.3,MacIntel,66.66666667,,,,,,,,,,,,,,left,1.139,Considerate,Underestimator,Overestimator,Underestimator,2,0,79,79,18,1
,,,,,,,,,,Innocent,65,59353,2022-05-01_19h36.53.558,SelfAnchoring,2021.2.3,MacIntel,66.66666667,,,,,,,,,,,,,,left,0.729,Innocent,Underestimator,Overestimator,Underestimator,2,0,80,80,64,1
,,,,,,,,,,Economical,34,59353,2022-05-01_19h36.53.558,SelfAnchoring,2021.2.3,MacIntel,66.66666667,,,,,,,,,,,,,,left,2.435,Economical,Underestimator,Overestimator,Underestimator,2,0,81,81,33,1
,,,,,,,,,,Studious,126,59353,2022-05-01_19h36.53.558,SelfAnchoring,2021.2.3,MacIntel,66.66666667,,,,,,,,,,,,,,right,1.348,Studious,Underestimator,Overestimator,Overestimator,1,0,82,82,125,1
,,,,,,,,,,Orderly,84,59353,2022-05-01_19h36.53.558,SelfAnchoring,2021.2.3,MacIntel,66.66666667,,,,,,,,,,,,,,left,1.069,Orderly,Underestimator,Overestimator,Underestimator,2,0,83,83,83,1
,,,,,,,,,,Cordial,23,59353,2022-05-01_19h36.53.558,SelfAnchoring,2021.2.3,MacIntel,66.66666667,,,,,,,,,,,,,,right,1.934,Cordial,Underestimator,Overestimator,Overestimator,1,0,84,84,22,1
,,,,,,,,,,Democratic,29,59353,2022-05-01_19h36.53.558,SelfAnchoring,2021.2.3,MacIntel,66.66666667,,,,,,,,,,,,,,right,1.844,Democratic,Underestimator,Overestimator,Overestimator,1,0,85,85,28,1
,,,,,,,,,,Philosophical,93,59353,2022-05-01_19h36.53.558,SelfAnchoring,2021.2.3,MacIntel,66.66666667,,,,,,,,,,,,,,right,1.253,Philosophical,Underestimator,Overestimator,Overestimator,1,0,86,86,92,1
,,,,,,,,,,Dignified,31,59353,2022-05-01_19h36.53.558,SelfAnchoring,2021.2.3,MacIntel,66.66666667,,,,,,,,,,,,,,left,17.305,Dignified,Underestimator,Overestimator,Underestimator,2,0,87,87,30,1
,,,,,,,,,,Rational,105,59353,2022-05-01_19h36.53.558,SelfAnchoring,2021.2.3,MacIntel,66.66666667,,,,,,,,,,,,,,left,2.027,Rational,Underestimator,Overestimator,Underestimator,2,0,88,88,104,1
,,,,,,,,,,Practical,96,59353,2022-05-01_19h36.53.558,SelfAnchoring,2021.2.3,MacIntel,66.66666667,,,,,,,,,,,,,,left,1.157,Practical,Underestimator,Overestimator,Underestimator,2,0,89,89,95,1
,,,,,,,,,,Prompt,99,59353,2022-05-01_19h36.53.558,SelfAnchoring,2021.2.3,MacIntel,66.66666667,,,,,,,,,,,,,,right,1.247,Prompt,Underestimator,Overestimator,Overestimator,1,0,90,90,98,1
,,,,,,,,,,Sophisticated,122,59353,2022-05-01_19h36.53.558,SelfAnchoring,2021.2.3,MacIntel,66.66666667,,,,,,,,,,,,,,right,1.368,Sophisticated,Underestimator,Overestimator,Overestimator,1,0,91,91,121,1
,,,,,,,,,,Verbal,140,59353,2022-05-01_19h36.53.558,SelfAnchoring,2021.2.3,MacIntel,66.66666667,,,,,,,,,,,,,,right,1.317,Verbal,Underestimator,Overestimator,Overestimator,1,0,92,92,139,1
,,,,,,,,,,Versatile,141,59353,2022-05-01_19h36.53.558,SelfAnchoring,2021.2.3,MacIntel,66.66666667,,,,,,,,,,,,,,left,5.497,Versatile,Underestimator,Overestimator,Underestimator,2,0,93,93,140,1
,,,,,,,,,,Natural,78,59353,2022-05-01_19h36.53.558,SelfAnchoring,2021.2.3,MacIntel,66.66666667,,,,,,,,,,,,,,left,32.098,Natural,Underestimator,Overestimator,Underestimator,2,0,94,94,77,1
,,,,,,,,,,Scientific,112,59353,2022-05-01_19h36.53.558,SelfAnchoring,2021.2.3,MacIntel,66.66666667,,,,,,,,,,,,,,right,3.813,Scientific,Underestimator,Overestimator,Overestimator,1,0,95,95,111,1
,,,,,,,,,,Witty,148,59353,2022-05-01_19h36.53.558,SelfAnchoring,2021.2.3,MacIntel,66.66666667,,,,,,,,,,,,,,right,12.008,Witty,Underestimator,Overestimator,Overestimator,1,0,96,96,147,1
,,,,,,,,,,Courageous,24,59353,2022-05-01_19h36.53.558,SelfAnchoring,2021.2.3,MacIntel,66.66666667,,,,,,,,,,,,,,right,1.207,Courageous,Underestimator,Overestimator,Overestimator,1,0,97,97,23,1
,,,,,,,,,,Deliberate,27,59353,2022-05-01_19h36.53.558,SelfAnchoring,2021.2.3,MacIntel,66.66666667,,,,,,,,,,,,,,left,8.358,Deliberate,Underestimator,Overestimator,Underestimator,2,0,98,98,26,1
,,,,,,,,,,Graceful,57,59353,2022-05-01_19h36.53.558,SelfAnchoring,2021.2.3,MacIntel,66.66666667,,,,,,,,,,,,,,left,0.932,Graceful,Underestimator,Overestimator,Underestimator,2,0,99,99,56,1
,,,,,,,,,,Outspoken,87,59353,2022-05-01_19h36.53.558,SelfAnchoring,2021.2.3,MacIntel,66.66666667,,,,,,,,,,,,,,right,0.77,Outspoken,Underestimator,Overestimator,Overestimator,1,0,100,100,86,1
,,,,,,,,,,Flexible,43,59353,2022-05-01_19h36.53.558,SelfAnchoring,2021.2.3,MacIntel,66.66666667,,,,,,,,,,,,,,left,1.98,Flexible,Underestimator,Overestimator,Underestimator,2,0,101,101,42,1
,,,,,,,,,,Original,85,59353,2022-05-01_19h36.53.558,SelfAnchoring,2021.2.3,MacIntel,66.66666667,,,,,,,,,,,,,,left,1.823,Original,Underestimator,Overestimator,Underestimator,2,0,102,102,84,1
,,,,,,,,,,Casual,5,59353,2022-05-01_19h36.53.558,SelfAnchoring,2021.2.3,MacIntel,66.66666667,,,,,,,,,,,,,,left,0.729,Casual,Underestimator,Overestimator,Underestimator,2,0,103,103,4,1
,,,,,,,,,,Subtle,127,59353,2022-05-01_19h36.53.558,SelfAnchoring,2021.2.3,MacIntel,66.66666667,,,,,,,,,,,,,,left,0.913,Subtle,Underestimator,Overestimator,Underestimator,2,0,104,104,126,1
,,,,,,,,,,Purposeful,102,59353,2022-05-01_19h36.53.558,SelfAnchoring,2021.2.3,MacIntel,66.66666667,,,,,,,,,,,,,,left,3.525,Purposeful,Underestimator,Overestimator,Underestimator,2,0,105,105,101,1
,,,,,,,,,,Giving,51,59353,2022-05-01_19h36.53.558,SelfAnchoring,2021.2.3,MacIntel,66.66666667,,,,,,,,,,,,,,left,0.933,Giving,Underestimator,Overestimator,Underestimator,2,0,106,106,50,1
,,,,,,,,,,Constructive,20,59353,2022-05-01_19h36.53.558,SelfAnchoring,2021.2.3,MacIntel,66.66666667,,,,,,,,,,,,,,right,1.16,Constructive,Underestimator,Overestimator,Overestimator,1,0,107,107,19,1
,,,,,,,,,,Friendly,46,59353,2022-05-01_19h36.53.558,SelfAnchoring,2021.2.3,MacIntel,66.66666667,,,,,,,,,,,,,,left,0.664,Friendly,Underestimator,Overestimator,Underestimator,2,0,108,108,45,1
,,,,,,,,,,Dedicated,25,59353,2022-05-01_19h36.53.558,SelfAnchoring,2021.2.3,MacIntel,66.66666667,,,,,,,,,,,,,,right,0.616,Dedicated,Underestimator,Overestimator,Overestimator,1,0,109,109,24,1
,,,,,,,,,,Prideful,98,59353,2022-05-01_19h36.53.558,SelfAnchoring,2021.2.3,MacIntel,66.66666667,,,,,,,,,,,,,,right,0.751,Prideful,Underestimator,Overestimator,Overestimator,1,0,110,110,97,1
,,,,,,,,,,Peaceful,89,59353,2022-05-01_19h36.53.558,SelfAnchoring,2021.2.3,MacIntel,66.66666667,,,,,,,,,,,,,,left,0.615,Peaceful,Underestimator,Overestimator,Underestimator,2,0,111,111,88,1
,,,,,,,,,,Gentle,50,59353,2022-05-01_19h36.53.558,SelfAnchoring,2021.2.3,MacIntel,66.66666667,,,,,,,,,,,,,,left,0.77,Gentle,Underestimator,Overestimator,Underestimator,2,0,112,112,49,1
,,,,,,,,,,Good-humored,54,59353,2022-05-01_19h36.53.558,SelfAnchoring,2021.2.3,MacIntel,66.66666667,,,,,,,,,,,,,,left,0.914,Good-humored,Underestimator,Overestimator,Underestimator,2,0,113,113,53,1
,,,,,,,,,,Humorous,63,59353,2022-05-01_19h36.53.558,SelfAnchoring,2021.2.3,MacIntel,66.66666667,,,,,,,,,,,,,,right,0.658,Humorous,Underestimator,Overestimator,Overestimator,1,0,114,114,62,1
,,,,,,,,,,Realistic,106,59353,2022-05-01_19h36.53.558,SelfAnchoring,2021.2.3,MacIntel,66.66666667,,,,,,,,,,,,,,left,0.864,Realistic,Underestimator,Overestimator,Underestimator,2,0,115,115,105,1
,,,,,,,,,,Nice,80,59353,2022-05-01_19h36.53.558,SelfAnchoring,2021.2.3,MacIntel,66.66666667,,,,,,,,,,,,,,left,0.975,Nice,Underestimator,Overestimator,Underestimator,2,0,116,116,79,1
,,,,,,,,,,Composed,15,59353,2022-05-01_19h36.53.558,SelfAnchoring,2021.2.3,MacIntel,66.66666667,,,,,,,,,,,,,,left,1.007,Composed,Underestimator,Overestimator,Underestimator,2,0,117,117,14,1
,,,,,,,,,,Calm,3,59353,2022-05-01_19h36.53.558,SelfAnchoring,2021.2.3,MacIntel,66.66666667,,,,,,,,,,,,,,left,0.521,Calm,Underestimator,Overestimator,Underestimator,2,0,118,118,2,1
,,,,,,,,,,Good,53,59353,2022-05-01_19h36.53.558,SelfAnchoring,2021.2.3,MacIntel,66.66666667,,,,,,,,,,,,,,left,0.593,Good,Underestimator,Overestimator,Underestimator,2,0,119,119,52,1
,,,,,,,,,,Normal,81,59353,2022-05-01_19h36.53.558,SelfAnchoring,2021.2.3,MacIntel,66.66666667,,,,,,,,,,,,,,left,0.706,Normal,Underestimator,Overestimator,Underestimator,2,0,120,120,80,1
,,,,,,,,,,Inquisitive,66,59353,2022-05-01_19h36.53.558,SelfAnchoring,2021.2.3,MacIntel,66.66666667,,,,,,,,,,,,,,right,15.896,Inquisitive,Underestimator,Overestimator,Overestimator,1,0,121,121,65,1
,,,,,,,,,,Warm,142,59353,2022-05-01_19h36.53.558,SelfAnchoring,2021.2.3,MacIntel,66.66666667,,,,,,,,,,,,,,left,0.615,Warm,Underestimator,Overestimator,Underestimator,2,0,122,122,141,1
,,,,,,,,,,Refined,107,59353,2022-05-01_19h36.53.558,SelfAnchoring,2021.2.3,MacIntel,66.66666667,,,,,,,,,,,,,,left,8.597,Refined,Underestimator,Overestimator,Underestimator,2,0,123,123,106,1
,,,,,,,,,,Good-natured,55,59353,2022-05-01_19h36.53.558,SelfAnchoring,2021.2.3,MacIntel,66.66666667,,,,,,,,,,,,,,left,0.619,Good-natured,Underestimator,Overestimator,Underestimator,2,0,124,124,54,1
,,,,,,,,,,Clear-headed,10,59353,2022-05-01_19h36.53.558,SelfAnchoring,2021.2.3,MacIntel,66.66666667,,,,,,,,,,,,,,left,0.662,Clear-headed,Underestimator,Overestimator,Underestimator,2,0,125,125,9,1
,,,,,,,,,,Open-minded,82,59353,2022-05-01_19h36.53.558,SelfAnchoring,2021.2.3,MacIntel,66.66666667,,,,,,,,,,,,,,right,1.455,Open-minded,Underestimator,Overestimator,Overestimator,1,0,126,126,81,1
,,,,,,,,,,Clean,8,59353,2022-05-01_19h36.53.558,SelfAnchoring,2021.2.3,MacIntel,66.66666667,,,,,,,,,,,,,,left,0.457,Clean,Underestimator,Overestimator,Underestimator,2,0,127,127,7,1
,,,,,,,,,,Unafraid,132,59353,2022-05-01_19h36.53.558,SelfAnchoring,2021.2.3,MacIntel,66.66666667,,,,,,,,,,,,,,right,1.297,Unafraid,Underestimator,Overestimator,Overestimator,1,0,128,128,131,1
,,,,,,,,,,Clean-cut,9,59353,2022-05-01_19h36.53.558,SelfAnchoring,2021.2.3,MacIntel,66.66666667,,,,,,,,,,,,,,left,0.662,Clean-cut,Underestimator,Overestimator,Underestimator,2,0,129,129,8,1
,,,,,,,,,,Steady,124,59353,2022-05-01_19h36.53.558,SelfAnchoring,2021.2.3,MacIntel,66.66666667,,,,,,,,,,,,,,left,0.749,Steady,Underestimator,Overestimator,Underestimator,2,0,130,130,123,1
,,,,,,,,,,Lenient,69,59353,2022-05-01_19h36.53.558,SelfAnchoring,2021.2.3,MacIntel,66.66666667,,,,,,,,,,,,,,left,0.886,Lenient,Underestimator,Overestimator,Underestimator,2,0,131,131,68,1
,,,,,,,,,,Accurate,1,59353,2022-05-01_19h36.53.558,SelfAnchoring,2021.2.3,MacIntel,66.66666667,,,,,,,,,,,,,,left,0.704,Accurate,Underestimator,Overestimator,Underestimator,2,0,132,132,0,1
,,,,,,,,,,Eager,33,59353,2022-05-01_19h36.53.558,SelfAnchoring,2021.2.3,MacIntel,66.66666667,,,,,,,,,,,,,,right,0.682,Eager,Underestimator,Overestimator,Overestimator,1,0,133,133,32,1
,,,,,,,,,,Neat,79,59353,2022-05-01_19h36.53.558,SelfAnchoring,2021.2.3,MacIntel,66.66666667,,,,,,,,,,,,,,left,0.592,Neat,Underestimator,Overestimator,Underestimator,2,0,134,134,78,1
,,,,,,,,,,Unpretentious,137,59353,2022-05-01_19h36.53.558,SelfAnchoring,2021.2.3,MacIntel,66.66666667,,,,,,,,,,,,,,left,10.356,Unpretentious,Underestimator,Overestimator,Underestimator,2,0,135,135,136,1
,,,,,,,,,,Respectable,109,59353,2022-05-01_19h36.53.558,SelfAnchoring,2021.2.3,MacIntel,66.66666667,,,,,,,,,,,,,,left,1.32,Respectable,Underestimator,Overestimator,Underestimator,2,0,136,136,108,1
,,,,,,,,,,Quick-witted,103,59353,2022-05-01_19h36.53.558,SelfAnchoring,2021.2.3,MacIntel,66.66666667,,,,,,,,,,,,,,right,12.942,Quick-witted,Underestimator,Overestimator,Overestimator,1,0,137,137,102,1
,,,,,,,,,,Charming,7,59353,2022-05-01_19h36.53.558,SelfAnchoring,2021.2.3,MacIntel,66.66666667,,,,,,,,,,,,,,right,1.663,Charming,Underestimator,Overestimator,Overestimator,1,0,138,138,6,1
,,,,,,,,,,Outgoing,86,59353,2022-05-01_19h36.53.558,SelfAnchoring,2021.2.3,MacIntel,66.66666667,,,,,,,,,,,,,,right,0.888,Outgoing,Underestimator,Overestimator,Overestimator,1,0,139,139,85,1
,,,,,,,,,,Funny,48,59353,2022-05-01_19h36.53.558,SelfAnchoring,2021.2.3,MacIntel,66.66666667,,,,,,,,,,,,,,right,0.753,Funny,Underestimator,Overestimator,Overestimator,1,0,140,140,47,1
,,,,,,,,,,Wise,147,59353,2022-05-01_19h36.53.558,SelfAnchoring,2021.2.3,MacIntel,66.66666667,,,,,,,,,,,,,,left,1.183,Wise,Underestimator,Overestimator,Underestimator,2,0,141,141,146,1
,,,,,,,,,,Optimistic,83,59353,2022-05-01_19h36.53.558,SelfAnchoring,2021.2.3,MacIntel,66.66666667,,,,,,,,,,,,,,left,1.185,Optimistic,Underestimator,Overestimator,Underestimator,2,0,142,142,82,1
,,,,,,,,,,Industrious,64,59353,2022-05-01_19h36.53.558,SelfAnchoring,2021.2.3,MacIntel,66.66666667,,,,,,,,,,,,,,right,1.255,Industrious,Underestimator,Overestimator,Overestimator,1,0,143,143,63,1
,,,,,,,,,,Healthy,58,59353,2022-05-01_19h36.53.558,SelfAnchoring,2021.2.3,MacIntel,66.66666667,,,,,,,,,,,,,,left,0.546,Healthy,Underestimator,Overestimator,Underestimator,2,0,144,144,57,1
,,,,,,,,,,Mature,75,59353,2022-05-01_19h36.53.558,SelfAnchoring,2021.2.3,MacIntel,66.66666667,,,,,,,,,,,,,,left,0.681,Mature,Underestimator,Overestimator,Underestimator,2,0,145,145,74,1
,,,,,,,,,,Ethical,37,59353,2022-05-01_19h36.53.558,SelfAnchoring,2021.2.3,MacIntel,66.66666667,,,,,,,,,,,,,,left,0.754,Ethical,Underestimator,Overestimator,Underestimator,2,0,146,146,36,1
,,,,,,,,,,Tough,131,59353,2022-05-01_19h36.53.558,SelfAnchoring,2021.2.3,MacIntel,66.66666667,,,,,,,,,,,,,,left,0.614,Tough,Underestimator,Overestimator,Underestimator,2,0,147,147,130,1
